mesurement	 time stamp	N1S0	N3P0	 Ntot	ex.rate	time stamp 2		# AOM frequency A	# AOM frequency B	# Zeeman shift (Hz)	# fHgAOM (Hz)	# drift rate A	# drift rate B
18.000	-6.516	18.000	3514338584.950	1191.031	1076.060	2267.091	0.475	-1.064	0.129	1.244	0.209
19.000	-6.387	19.000	3514338586.450	2243.490	244.595	2488.084	0.098	-1.064	0.129	1.244	0.209
20.000	-6.387	20.000	3514338587.950	1543.967	842.910	2386.877	0.353	-1.064	0.129	3.255	0.209
21.000	-9.642	21.000	3514338589.450	1407.481	1028.897	2436.378	0.422	-1.064	0.129	3.255	0.209
22.000	-9.642	22.000	3514338590.950	2364.791	252.982	2617.772	0.097	-1.064	0.129	3.255	-1.654
23.000	-7.905	23.000	3514338592.451	2106.383	265.611	2371.993	0.112	-1.064	0.129	3.255	-1.654
32.000	0.818	32.000	3514338605.950	1766.500	599.697	2366.197	0.253	2.206	2.243	-2.866	1.026
33.000	3.351	33.000	3514338607.451	1765.657	589.731	2355.388	0.250	2.206	2.243	-2.866	1.026
34.000	3.351	34.000	3514338608.950	2021.179	439.462	2460.640	0.179	2.206	0.118	-2.866	1.026
35.000	3.593	35.000	3514338610.450	1744.389	745.230	2489.619	0.299	2.206	0.118	-2.866	1.026
36.000	3.593	36.000	3514338611.951	2236.741	437.488	2674.229	0.164	2.206	0.118	3.573	1.026
37.000	-0.008	37.000	3514338613.451	1141.792	1288.785	2430.577	0.530	2.206	0.118	3.573	1.026
38.000	-0.008	38.000	3514338614.952	2386.547	145.632	2532.179	0.058	2.206	0.118	3.573	0.419
39.000	-0.411	39.000	3514338616.451	1680.941	665.606	2346.547	0.284	2.206	0.118	3.573	0.419
40.000	-0.411	40.000	3514338617.951	1821.823	419.827	2241.650	0.187	-0.632	0.118	3.573	0.419
41.000	-0.730	41.000	3514338619.451	1737.551	605.222	2342.773	0.258	-0.632	0.118	3.573	0.419
42.000	-0.730	42.000	3514338620.950	2142.479	331.915	2474.395	0.134	-0.632	-1.195	3.573	0.419
43.000	-1.854	43.000	3514338622.451	2255.211	510.107	2765.319	0.184	-0.632	-1.195	3.573	0.419
52.000	3.044	52.000	3514338635.951	2294.949	445.086	2740.035	0.162	-1.093	0.379	3.217	-0.848
53.000	-0.147	53.000	3514338637.452	783.439	1520.356	2303.795	0.660	-1.093	0.379	3.217	-0.848
54.000	-0.147	54.000	3514338638.951	2087.823	582.233	2670.056	0.218	-1.093	0.379	3.217	-1.419
55.000	1.406	55.000	3514338640.452	1743.279	644.393	2387.672	0.270	-1.093	0.379	3.217	-1.419
56.000	1.406	56.000	3514338641.951	1374.536	936.150	2310.687	0.405	-1.027	0.379	3.217	-1.419
57.000	0.615	57.000	3514338643.451	1893.395	431.075	2324.470	0.185	-1.027	0.379	3.217	-1.419
58.000	0.615	58.000	3514338644.951	1859.429	409.171	2268.601	0.180	-1.027	-0.486	3.217	-1.419
59.000	0.202	59.000	3514338646.451	1960.750	626.534	2587.284	0.242	-1.027	-0.486	3.217	-1.419
60.000	0.202	60.000	3514338647.952	2120.635	434.232	2554.867	0.170	-1.027	-0.486	-3.889	-1.419
61.000	4.312	61.000	3514338649.453	2297.169	522.243	2819.412	0.185	-1.027	-0.486	-3.889	-1.419
62.000	4.312	62.000	3514338650.953	1095.749	1190.415	2286.163	0.521	-1.027	-0.486	-3.889	1.190
63.000	3.203	63.000	3514338652.453	1837.363	527.966	2365.328	0.223	-1.027	-0.486	-3.889	1.190
64.000	3.203	64.000	3514338653.951	1503.297	687.510	2190.807	0.314	-0.045	-0.486	-3.889	1.190
65.000	3.404	65.000	3514338655.452	1794.783	593.185	2387.968	0.248	-0.045	-0.486	-3.889	1.190
66.000	3.404	66.000	3514338656.951	1981.529	451.499	2433.029	0.186	-0.045	-0.635	-3.889	1.190
67.000	2.813	67.000	3514338658.452	2270.174	411.243	2681.417	0.153	-0.045	-0.635	-3.889	1.190
68.000	2.813	68.000	3514338659.952	2042.624	197.136	2239.760	0.088	-0.045	-0.635	2.952	1.190
69.000	-0.053	69.000	3514338661.452	1276.324	1014.590	2290.914	0.443	-0.045	-0.635	2.952	1.190
70.000	-0.053	70.000	3514338662.951	1779.687	643.801	2423.488	0.266	-0.045	-0.635	2.952	0.797
71.000	-0.806	71.000	3514338664.453	1616.073	489.881	2105.953	0.233	-0.045	-0.635	2.952	0.797
72.000	-0.806	72.000	3514338665.951	1750.117	504.286	2254.402	0.224	-0.553	-0.635	2.952	0.797
73.000	-1.129	73.000	3514338667.451	1878.210	372.862	2251.072	0.166	-0.553	-0.635	2.952	0.797
74.000	-1.129	74.000	3514338668.951	1885.981	431.667	2317.648	0.186	-0.553	-0.575	2.952	0.797
75.000	-1.686	75.000	3514338670.452	2170.141	380.558	2550.699	0.149	-0.553	-0.575	2.952	0.797
76.000	-1.686	76.000	3514338671.952	1634.588	719.873	2354.460	0.306	-0.553	-0.575	-1.560	0.797
77.000	0.042	77.000	3514338673.452	1529.804	697.673	2227.476	0.313	-0.553	-0.575	-1.560	0.797
78.000	0.042	78.000	3514338674.953	1292.974	874.286	2167.260	0.403	-0.553	-0.575	-1.560	-0.079
79.000	0.172	79.000	3514338676.452	961.794	986.964	1948.757	0.506	-0.553	-0.575	-1.560	-0.079
80.000	0.172	80.000	3514338677.952	1869.197	383.320	2252.518	0.170	0.181	-0.575	-1.560	-0.079
81.000	0.604	81.000	3514338679.451	1520.124	723.030	2243.154	0.322	0.181	-0.575	-1.560	-0.079
82.000	0.604	82.000	3514338680.951	2118.281	168.720	2287.002	0.074	0.181	1.378	-1.560	-0.079
83.000	2.069	83.000	3514338682.452	1724.054	737.139	2461.193	0.300	0.181	1.378	-1.560	-0.079
84.000	2.069	84.000	3514338683.953	2205.040	293.632	2498.672	0.118	0.181	1.378	0.794	-0.079
85.000	1.412	85.000	3514338685.452	1204.706	1072.508	2277.214	0.471	0.181	1.378	0.794	-0.079
86.000	1.412	86.000	3514338686.953	1551.604	673.598	2225.202	0.303	0.181	1.378	0.794	-2.959
87.000	4.573	87.000	3514338688.452	1896.548	403.942	2300.490	0.176	0.181	1.378	0.794	-2.959
88.000	4.573	88.000	3514338689.952	993.362	1062.740	2056.102	0.517	-2.187	1.378	0.794	-2.959
89.000	2.540	89.000	3514338691.452	1746.165	532.801	2278.966	0.234	-2.187	1.378	0.794	-2.959
90.000	2.540	90.000	3514338692.952	2086.358	198.320	2284.678	0.087	-2.187	-1.602	0.794	-2.959
91.000	0.950	91.000	3514338694.453	1983.572	355.102	2338.674	0.152	-2.187	-1.602	0.794	-2.959
92.000	0.950	92.000	3514338695.952	2032.234	546.318	2578.552	0.212	-2.187	-1.602	-1.481	-2.959
93.000	2.649	93.000	3514338697.452	1859.296	405.816	2265.113	0.179	-2.187	-1.602	-1.481	-2.959
94.000	2.649	94.000	3514338698.954	1097.835	1220.705	2318.541	0.526	-2.187	-1.602	-1.481	3.003
95.000	-0.293	95.000	3514338700.454	1340.615	632.947	1973.562	0.321	-2.187	-1.602	-1.481	3.003
96.000	-0.293	96.000	3514338701.953	1668.421	745.822	2414.243	0.309	-1.293	-1.602	-1.481	3.003
97.000	-1.490	97.000	3514338703.453	1963.903	212.331	2176.234	0.098	-1.293	-1.602	-1.481	3.003
98.000	-1.490	98.000	3514338704.953	1598.579	371.184	1969.763	0.188	-1.293	0.528	-1.481	3.003
99.000	-0.922	99.000	3514338706.453	1668.731	607.787	2276.519	0.267	-1.293	0.528	-1.481	3.003
100.000	-0.922	100.000	3514338707.953	2097.503	302.907	2400.410	0.126	-1.293	0.528	3.057	3.003
101.000	-3.903	101.000	3514338709.452	1009.568	933.486	1943.054	0.480	-1.293	0.528	3.057	3.003
102.000	-3.903	102.000	3514338710.952	2087.202	271.827	2359.029	0.115	-1.293	0.528	3.057	-0.104
103.000	-3.730	103.000	3514338712.453	1478.566	657.614	2136.179	0.308	-1.293	0.528	3.057	-0.104
104.000	-3.730	104.000	3514338713.952	1535.043	473.107	2008.150	0.236	0.800	0.528	3.057	-0.104
105.000	-2.788	105.000	3514338715.451	1609.191	430.187	2039.378	0.211	0.800	0.528	3.057	-0.104
106.000	-2.788	106.000	3514338716.954	1810.723	291.363	2102.086	0.139	0.800	-1.239	3.057	-0.104
107.000	-4.048	107.000	3514338718.453	1881.851	344.150	2226.001	0.155	0.800	-1.239	3.057	-0.104
108.000	-4.048	108.000	3514338719.953	1757.087	453.867	2210.954	0.205	0.800	-1.239	-3.214	-0.104
109.000	-0.594	109.000	3514338721.454	1529.226	788.939	2318.166	0.340	0.800	-1.239	-3.214	-0.104
110.000	-0.594	110.000	3514338722.953	1012.232	1148.580	2160.812	0.532	0.800	-1.239	-3.214	-0.636
111.000	0.147	111.000	3514338724.453	1116.972	826.827	1943.799	0.425	0.800	-1.239	-3.214	-0.636
112.000	0.147	112.000	3514338725.952	1790.698	304.979	2095.677	0.146	-0.637	-1.239	-3.214	-0.636
113.000	-0.373	113.000	3514338727.452	1718.370	485.243	2203.614	0.220	-0.637	-1.239	-3.214	-0.636
114.000	-0.373	114.000	3514338728.952	1579.665	508.035	2087.700	0.243	-0.637	0.446	-3.214	-0.636
115.000	0.074	115.000	3514338730.452	1371.651	881.489	2253.140	0.391	-0.637	0.446	-3.214	-0.636
116.000	0.074	116.000	3514338731.952	1815.607	459.294	2274.900	0.202	-0.637	0.446	1.683	-0.636
117.000	-1.441	117.000	3514338733.453	1075.946	887.606	1963.552	0.452	-0.637	0.446	1.683	-0.636
118.000	-1.441	118.000	3514338734.953	1980.952	264.822	2245.774	0.118	-0.637	0.446	1.683	-2.463
119.000	1.255	119.000	3514338736.455	1658.164	456.728	2114.892	0.216	-0.637	0.446	1.683	-2.463
120.000	1.255	120.000	3514338737.952	1742.924	377.696	2120.620	0.178	0.204	0.446	1.683	-2.463
121.000	1.592	121.000	3514338739.453	1658.652	400.587	2059.240	0.195	0.204	0.446	1.683	-2.463
122.000	1.592	122.000	3514338740.953	2047.020	110.309	2157.329	0.051	0.204	-1.666	1.683	-2.463
123.000	-0.157	123.000	3514338742.453	1997.469	468.371	2465.840	0.190	0.204	-1.666	1.683	-2.463
124.000	-0.157	124.000	3514338743.953	1911.777	322.048	2233.825	0.144	0.204	-1.666	-2.940	-2.463
125.000	3.107	125.000	3514338745.453	2151.093	236.603	2387.696	0.099	0.204	-1.666	-2.940	-2.463
126.000	3.107	126.000	3514338746.953	1023.510	1104.870	2128.380	0.519	0.204	-1.666	-2.940	-0.333
127.000	3.701	127.000	3514338748.453	2079.432	208.088	2287.520	0.091	0.204	-1.666	-2.940	-0.333
128.000	3.701	128.000	3514338749.953	1234.721	844.588	2079.308	0.406	-1.262	-1.666	-2.940	-0.333
129.000	2.516	129.000	3514338751.454	1695.371	335.171	2030.542	0.165	-1.262	-1.666	-2.940	-0.333
130.000	2.516	130.000	3514338752.954	1619.936	462.352	2082.288	0.222	-1.262	-0.403	-2.940	-0.333
131.000	2.006	131.000	3514338754.454	2069.264	606.603	2675.867	0.227	-1.262	-0.403	-2.940	-0.333
132.000	2.006	132.000	3514338755.954	1493.529	720.859	2214.388	0.326	-1.262	-0.403	3.696	-0.333
133.000	-1.535	133.000	3514338757.453	1330.225	862.644	2192.869	0.393	-1.262	-0.403	3.696	-0.333
134.000	-1.535	134.000	3514338758.955	1993.651	204.438	2198.088	0.093	-1.262	-0.403	3.696	2.774
135.000	-4.173	135.000	3514338760.455	1308.736	884.745	2193.481	0.403	-1.262	-0.403	3.696	2.774
136.000	-4.173	136.000	3514338761.952	1939.749	134.976	2074.725	0.065	0.501	-0.403	3.696	2.774
137.000	-3.566	137.000	3514338763.453	1448.640	629.593	2078.233	0.303	0.501	-0.403	3.696	2.774
138.000	-3.566	138.000	3514338764.953	1647.108	632.849	2279.957	0.278	0.501	0.870	3.696	2.774
139.000	-2.765	139.000	3514338766.453	1524.520	787.953	2312.473	0.341	0.501	0.870	3.696	2.774
140.000	-2.765	140.000	3514338767.953	1621.179	290.278	1911.457	0.152	0.501	0.870	-2.643	2.774
141.000	0.173	141.000	3514338769.454	1907.736	368.718	2276.454	0.162	0.501	0.870	-2.643	2.774
142.000	0.173	142.000	3514338770.954	1060.672	1021.596	2082.268	0.491	0.501	0.870	-2.643	-2.977
143.000	3.442	143.000	3514338772.454	1706.738	245.286	1952.023	0.126	0.501	0.870	-2.643	-2.977
144.000	3.442	144.000	3514338773.954	-59.407	-161.715	-221.122	0.731	-0.223	0.870	-2.643	-2.977
145.000	3.318	145.000	3514338775.454	-8.969	34.632	25.663	1.349	-0.223	0.870	-2.643	-2.977
146.000	3.318	146.000	3514338776.954	27.040	19.043	46.082	0.413	-0.223	-1.662	-2.643	-2.977
147.000	1.500	147.000	3514338778.454	-0.488	88.011	87.522	1.006	-0.223	-1.662	-2.643	-2.977
148.000	1.500	148.000	3514338779.954	1649.906	491.065	2140.970	0.229	-0.223	-1.662	2.892	-2.977
149.000	-1.227	149.000	3514338781.454	1196.626	1094.609	2291.235	0.478	-0.223	-1.662	2.892	-2.977
168.000	-0.632	168.000	3514338809.954	1674.725	623.179	2297.905	0.271	0.273	-0.499	3.784	1.791
169.000	-0.241	169.000	3514338811.454	1313.353	860.473	2173.826	0.396	0.273	-0.499	3.784	1.791
170.000	-0.241	170.000	3514338812.955	2095.726	191.512	2287.239	0.084	0.273	0.388	3.784	1.791
171.000	-0.031	171.000	3514338814.454	1900.854	431.272	2332.127	0.185	0.273	0.388	3.784	1.791
172.000	-0.031	172.000	3514338815.954	1968.698	555.889	2524.586	0.220	0.273	0.388	-2.998	1.791
173.000	3.335	173.000	3514338817.455	1859.607	277.944	2137.551	0.130	0.273	0.388	-2.998	1.791
174.000	3.335	174.000	3514338818.955	1519.103	960.620	2479.723	0.387	0.273	0.388	-2.998	1.327
175.000	2.251	175.000	3514338820.454	1143.745	767.628	1911.373	0.402	0.273	0.388	-2.998	1.327
176.000	2.251	176.000	3514338821.954	1596.404	476.363	2072.767	0.230	-2.747	0.388	-2.998	1.327
177.000	-0.509	177.000	3514338823.454	1663.270	344.840	2008.110	0.172	-2.747	0.388	-2.998	1.327
178.000	-0.509	178.000	3514338824.955	1761.483	307.544	2069.027	0.149	-2.747	0.310	-2.998	1.327
179.000	-0.370	179.000	3514338826.455	2110.423	223.875	2334.298	0.096	-2.747	0.310	-2.998	1.327
180.000	-0.370	180.000	3514338827.955	1873.504	457.616	2331.120	0.196	-2.747	0.310	2.265	1.327
181.000	-2.362	181.000	3514338829.456	1357.132	629.198	1986.330	0.317	-2.747	0.310	2.265	1.327
182.000	-2.362	182.000	3514338830.955	2010.079	451.499	2461.578	0.183	-2.747	0.310	2.265	-1.512
183.000	-0.519	183.000	3514338832.456	1515.818	565.065	2080.882	0.272	-2.747	0.310	2.265	-1.512
184.000	-0.519	184.000	3514338833.954	1102.497	984.102	2086.600	0.472	-0.203	0.310	2.265	-1.512
185.000	-0.747	185.000	3514338835.454	1781.063	323.232	2104.296	0.154	-0.203	0.310	2.265	-1.512
186.000	-0.747	186.000	3514338836.954	1744.744	445.086	2189.830	0.203	-0.203	0.884	2.265	-1.512
187.000	0.001	187.000	3514338838.455	1874.392	317.608	2192.000	0.145	-0.203	0.884	2.265	-1.512
188.000	0.001	188.000	3514338839.956	1764.990	480.606	2245.596	0.214	-0.203	0.884	-1.173	-1.512
189.000	1.375	189.000	3514338841.455	-15.052	-16.576	-31.628	0.524	-0.203	0.884	-1.173	-1.512
190.000	1.375	190.000	3514338842.956	-8.081	-59.003	-67.084	0.880	-0.203	0.884	-1.173	1.761
191.000	-0.208	191.000	3514338844.455	1646.842	431.470	2078.312	0.208	-0.203	0.884	-1.173	1.761
192.000	-0.208	192.000	3514338845.954	-23.932	41.144	17.212	2.390	0.437	0.884	-1.173	1.761
193.000	0.225	193.000	3514338847.454	1743.146	245.088	1988.234	0.123	0.437	0.884	-1.173	1.761
194.000	0.225	194.000	3514338848.955	1594.095	338.920	1933.015	0.175	0.437	0.608	-1.173	1.761
195.000	0.609	195.000	3514338850.455	1639.427	518.297	2157.724	0.240	0.437	0.608	-1.173	1.761
206.000	3.382	206.000	3514338866.956	1791.675	628.409	2420.083	0.260	0.458	1.332	-0.562	0.148
207.000	3.459	207.000	3514338868.457	1544.145	392.398	1936.542	0.203	0.458	1.332	-0.562	0.148
208.000	3.459	208.000	3514338869.955	70.019	147.211	217.230	0.678	-0.105	1.332	-0.562	0.148
209.000	3.031	209.000	3514338871.455	-55.500	-53.379	-108.879	0.490	-0.105	1.332	-0.562	0.148
210.000	3.031	210.000	3514338872.955	1890.376	203.451	2093.827	0.097	-0.105	-2.107	-0.562	0.148
211.000	0.683	211.000	3514338874.456	1698.435	525.598	2224.033	0.236	-0.105	-2.107	-0.562	0.148
212.000	0.683	212.000	3514338875.957	-10.922	-33.843	-44.765	0.756	-0.105	-2.107	1.463	0.148
213.000	-0.629	213.000	3514338877.456	-18.515	-41.144	-59.659	0.690	-0.105	-2.107	1.463	0.148
236.000	-5.902	236.000	3514338911.956	2199.978	277.747	2477.725	0.112	-0.418	-0.087	1.127	-0.727
237.000	-6.774	237.000	3514338913.457	568.942	1467.767	2036.709	0.721	-0.418	-0.087	1.127	-0.727
260.000	-1.667	260.000	3514338947.957	2518.859	154.413	2673.272	0.058	0.884	2.104	-3.211	2.312
261.000	1.879	261.000	3514338949.457	2057.454	368.816	2426.270	0.152	0.884	2.104	-3.211	2.312
262.000	1.879	262.000	3514338950.957	1459.563	912.964	2372.526	0.385	0.884	2.104	-3.211	0.994
263.000	1.179	263.000	3514338952.458	1380.397	831.859	2212.257	0.376	0.884	2.104	-3.211	0.994
264.000	1.179	264.000	3514338953.957	1938.417	308.728	2247.146	0.137	0.596	2.104	-3.211	0.994
265.000	1.486	265.000	3514338955.457	1524.564	675.177	2199.741	0.307	0.596	2.104	-3.211	0.994
266.000	1.486	266.000	3514338956.956	1715.662	321.851	2037.513	0.158	0.596	-3.271	-3.211	0.994
267.000	-2.283	267.000	3514338958.457	1949.251	267.979	2217.230	0.121	0.596	-3.271	-3.211	0.994
268.000	-2.283	268.000	3514338959.958	1862.804	494.518	2357.322	0.210	0.596	-3.271	2.049	0.994
269.000	-4.052	269.000	3514338961.458	1963.281	406.211	2369.492	0.171	0.596	-3.271	2.049	0.994
270.000	-4.052	270.000	3514338962.959	1998.135	160.630	2158.765	0.074	0.596	-3.271	2.049	-2.100
271.000	-1.687	271.000	3514338964.458	1533.533	684.649	2218.182	0.309	0.596	-3.271	2.049	-2.100
272.000	-1.687	272.000	3514338965.957	1544.899	604.729	2149.628	0.281	-1.311	-3.271	2.049	-2.100
273.000	-3.388	273.000	3514338967.458	1926.296	175.528	2101.824	0.084	-1.311	-3.271	2.049	-2.100
274.000	-3.388	274.000	3514338968.957	1217.183	540.201	1757.383	0.307	-1.311	0.782	2.049	-2.100
275.000	-3.014	275.000	3514338970.457	1689.288	558.947	2248.236	0.249	-1.311	0.782	2.049	-2.100
276.000	-3.014	276.000	3514338971.957	1958.353	468.766	2427.118	0.193	-1.311	0.782	-0.854	-2.100
277.000	-1.904	277.000	3514338973.457	1720.324	564.867	2285.191	0.247	-1.311	0.782	-0.854	-2.100
278.000	-1.904	278.000	3514338974.958	1654.701	601.966	2256.667	0.267	-1.311	0.782	-0.854	-0.241
279.000	-1.234	279.000	3514338976.457	1679.298	485.934	2165.232	0.224	-1.311	0.782	-0.854	-0.241
280.000	-1.234	280.000	3514338977.957	1174.736	993.870	2168.606	0.458	1.970	0.782	-0.854	-0.241
281.000	0.522	281.000	3514338979.458	1816.939	591.902	2408.841	0.246	1.970	0.782	-0.854	-0.241
282.000	0.522	282.000	3514338980.958	1841.181	373.750	2214.930	0.169	1.970	-0.488	-0.854	-0.241
283.000	-0.447	283.000	3514338982.458	2199.490	78.045	2277.535	0.034	1.970	-0.488	-0.854	-0.241
284.000	-0.447	284.000	3514338983.958	1596.315	535.464	2131.779	0.251	1.970	-0.488	0.172	-0.241
285.000	-0.217	285.000	3514338985.458	1713.131	638.966	2352.097	0.272	1.970	-0.488	0.172	-0.241
286.000	-0.217	286.000	3514338986.958	1543.701	805.614	2349.315	0.343	1.970	-0.488	0.172	2.058
287.000	-1.935	287.000	3514338988.458	1776.046	476.857	2252.903	0.212	1.970	-0.488	0.172	2.058
288.000	-1.935	288.000	3514338989.958	1973.493	338.822	2312.315	0.147	-0.677	-0.488	0.172	2.058
289.000	-2.814	289.000	3514338991.457	1750.427	511.587	2262.015	0.226	-0.677	-0.488	0.172	2.058
290.000	-2.814	290.000	3514338992.957	1979.043	188.355	2167.398	0.087	-0.677	1.909	0.172	2.058
291.000	-1.254	291.000	3514338994.457	1522.122	475.179	1997.302	0.238	-0.677	1.909	0.172	2.058
292.000	-1.254	292.000	3514338995.958	1996.581	444.790	2441.371	0.182	-0.677	1.909	0.627	2.058
293.000	-1.654	293.000	3514338997.458	1328.094	824.163	2152.258	0.383	-0.677	1.909	0.627	2.058
294.000	-1.654	294.000	3514338998.958	2159.707	135.469	2295.176	0.059	-0.677	1.909	0.627	-0.573
295.000	-0.731	295.000	3514339000.458	1083.095	998.409	2081.504	0.480	-0.677	1.909	0.627	-0.573
296.000	-0.731	296.000	3514339001.958	1931.713	122.544	2054.257	0.060	-1.225	1.909	0.627	-0.573
297.000	-2.275	297.000	3514339003.457	1751.226	337.440	2088.667	0.162	-1.225	1.909	0.627	-0.573
298.000	-2.275	298.000	3514339004.967	1948.451	392.891	2341.343	0.168	-1.225	-0.490	0.627	-0.573
299.000	-3.177	299.000	3514339006.458	1656.033	371.283	2027.316	0.183	-1.225	-0.490	0.627	-0.573
300.000	-3.177	300.000	3514339007.958	1985.659	206.115	2191.774	0.094	-1.225	-0.490	-2.850	-0.573
301.000	0.126	301.000	3514339009.458	1790.165	459.590	2249.755	0.204	-1.225	-0.490	-2.850	-0.573
302.000	0.126	302.000	3514339010.959	1432.434	984.497	2416.931	0.407	-1.225	-0.490	-2.850	-3.696
303.000	4.246	303.000	3514339012.459	1769.830	309.518	2079.348	0.149	-1.225	-0.490	-2.850	-3.696
304.000	4.246	304.000	3514339013.958	931.380	1097.865	2029.245	0.541	0.055	-0.490	-2.850	-3.696
305.000	3.995	305.000	3514339015.458	1919.814	235.419	2155.232	0.109	0.055	-0.490	-2.850	-3.696
306.000	3.995	306.000	3514339016.958	1709.135	424.168	2133.304	0.199	0.055	-0.784	-2.850	-3.696
307.000	2.822	307.000	3514339018.458	1642.846	746.019	2388.865	0.312	0.055	-0.784	-2.850	-3.696
308.000	2.822	308.000	3514339019.958	1657.542	615.483	2273.026	0.271	0.055	-0.784	1.787	-3.696
309.000	1.266	309.000	3514339021.459	1534.288	630.678	2164.966	0.291	0.055	-0.784	1.787	-3.696
310.000	1.266	310.000	3514339022.958	1849.706	273.899	2123.605	0.129	0.055	-0.784	1.787	3.451
311.000	-1.941	311.000	3514339024.459	1568.787	419.630	1988.417	0.211	0.055	-0.784	1.787	3.451
312.000	-1.941	312.000	3514339025.958	2003.907	263.342	2267.249	0.116	0.788	-0.784	1.787	3.451
313.000	-1.451	313.000	3514339027.458	1734.665	551.054	2285.719	0.241	0.788	-0.784	1.787	3.451
314.000	-1.451	314.000	3514339028.958	1948.762	171.187	2119.949	0.081	0.788	-0.365	1.787	3.451
315.000	-2.218	315.000	3514339030.459	1849.350	365.363	2214.713	0.165	0.788	-0.365	1.787	3.451
316.000	-2.218	316.000	3514339031.959	1567.810	523.427	2091.237	0.250	0.788	-0.365	-1.429	3.451
317.000	-0.307	317.000	3514339033.459	1824.664	731.022	2555.686	0.286	0.788	-0.365	-1.429	3.451
318.000	-0.307	318.000	3514339034.959	1390.476	649.425	2039.901	0.318	0.788	-0.365	-1.429	-0.835
319.000	0.952	319.000	3514339036.460	1551.071	630.283	2181.354	0.289	0.788	-0.365	-1.429	-0.835
320.000	0.952	320.000	3514339037.958	1825.641	225.059	2050.700	0.110	-1.411	-0.365	-1.429	-0.835
321.000	-0.787	321.000	3514339039.459	1509.246	363.686	1872.932	0.194	-1.411	-0.365	-1.429	-0.835
322.000	-0.787	322.000	3514339040.958	1793.007	358.456	2151.463	0.167	-1.411	0.751	-1.429	-0.835
323.000	-0.458	323.000	3514339042.459	1909.513	470.838	2380.351	0.198	-1.411	0.751	-1.429	-0.835
324.000	-0.458	324.000	3514339043.958	1648.662	492.840	2141.502	0.230	-1.411	0.751	0.284	-0.835
325.000	-0.391	325.000	3514339045.459	1303.985	852.580	2156.564	0.395	-1.411	0.751	0.284	-0.835
326.000	-0.391	326.000	3514339046.959	1672.061	693.825	2365.886	0.293	-1.411	0.751	0.284	-1.577
327.000	1.554	327.000	3514339048.460	1845.354	249.430	2094.784	0.119	-1.411	0.751	0.284	-1.577
328.000	1.554	328.000	3514339049.958	1302.564	540.102	1842.666	0.293	-0.243	0.751	0.284	-1.577
329.000	0.927	329.000	3514339051.459	1653.768	391.115	2044.883	0.191	-0.243	0.751	0.284	-1.577
330.000	0.927	330.000	3514339052.959	1470.662	606.307	2076.970	0.292	-0.243	0.285	0.284	-1.577
331.000	0.869	331.000	3514339054.459	1673.571	513.659	2187.230	0.235	-0.243	0.285	0.284	-1.577
332.000	0.869	332.000	3514339055.960	1885.625	471.331	2356.957	0.200	-0.243	0.285	-0.898	-1.577
333.000	2.311	333.000	3514339057.460	1663.892	218.744	1882.636	0.116	-0.243	0.285	-0.898	-1.577
334.000	2.311	334.000	3514339058.959	1142.280	1027.713	2169.993	0.474	-0.243	0.285	-0.898	1.532
335.000	1.016	335.000	3514339060.459	1282.495	648.241	1930.736	0.336	-0.243	0.285	-0.898	1.532
336.000	1.016	336.000	3514339061.959	1827.417	339.216	2166.633	0.157	0.886	0.285	-0.898	1.532
337.000	1.548	337.000	3514339063.458	1547.475	661.561	2209.035	0.299	0.886	0.285	-0.898	1.532
338.000	1.548	338.000	3514339064.958	1888.644	247.259	2135.903	0.116	0.886	-0.307	-0.898	1.532
339.000	0.898	339.000	3514339066.460	2020.602	456.926	2477.527	0.184	0.886	-0.307	-0.898	1.532
340.000	0.898	340.000	3514339067.959	1602.487	694.417	2296.903	0.302	0.886	-0.307	3.145	1.532
341.000	-2.045	341.000	3514339069.461	1057.520	921.844	1979.364	0.466	0.886	-0.307	3.145	1.532
342.000	-2.045	342.000	3514339070.960	1934.732	390.227	2324.959	0.168	0.886	-0.307	3.145	-1.577
343.000	-0.071	343.000	3514339072.460	1731.113	301.624	2032.737	0.148	0.886	-0.307	3.145	-1.577
344.000	-0.071	344.000	3514339073.960	1302.031	595.750	1897.781	0.314	-1.617	-0.307	3.145	-1.577
345.000	-2.158	345.000	3514339075.460	1790.609	313.070	2103.679	0.149	-1.617	-0.307	3.145	-1.577
346.000	-2.158	346.000	3514339076.960	1571.406	523.032	2094.439	0.250	-1.617	1.038	3.145	-1.577
347.000	-1.439	347.000	3514339078.460	1623.132	514.251	2137.384	0.241	-1.617	1.038	3.145	-1.577
348.000	-1.439	348.000	3514339079.960	1808.724	332.803	2141.527	0.155	-1.617	1.038	-2.621	-1.577
349.000	1.696	349.000	3514339081.460	2210.767	245.384	2456.151	0.100	-1.617	1.038	-2.621	-1.577
350.000	1.696	350.000	3514339082.959	958.109	1063.332	2021.440	0.526	-1.617	1.038	-2.621	1.457
351.000	0.636	351.000	3514339084.461	1618.870	213.318	1832.187	0.116	-1.617	1.038	-2.621	1.457
352.000	0.636	352.000	3514339085.960	1194.050	783.315	1977.366	0.396	0.888	1.038	-2.621	1.457
353.000	1.205	353.000	3514339087.459	1817.782	464.424	2282.207	0.203	0.888	1.038	-2.621	1.457
354.000	1.205	354.000	3514339088.959	1326.851	588.843	1915.694	0.307	0.888	-0.750	-2.621	1.457
355.000	0.078	355.000	3514339090.460	1846.154	286.923	2133.077	0.135	0.888	-0.750	-2.621	1.457
356.000	0.078	356.000	3514339091.959	1667.799	507.838	2175.636	0.233	0.888	-0.750	3.750	1.457
357.000	-3.481	357.000	3514339093.461	1111.644	807.883	1919.527	0.421	0.888	-0.750	3.750	1.457
358.000	-3.481	358.000	3514339094.960	1842.158	289.094	2131.251	0.136	0.888	-0.750	3.750	2.461
359.000	-5.737	359.000	3514339096.460	1079.232	831.169	1910.401	0.435	0.888	-0.750	3.750	2.461
360.000	-5.737	360.000	3514339097.959	1758.819	197.136	1955.955	0.101	0.914	-0.750	3.750	2.461
361.000	-5.101	361.000	3514339099.460	1919.370	219.040	2138.410	0.102	0.914	-0.750	3.750	2.461
362.000	-5.101	362.000	3514339100.961	1558.530	632.059	2190.590	0.289	0.914	0.870	3.750	2.461
363.000	-4.619	363.000	3514339102.461	1857.831	489.782	2347.613	0.209	0.914	0.870	3.750	2.461
364.000	-4.619	364.000	3514339103.961	1776.535	487.315	2263.850	0.215	0.914	0.870	-2.510	2.461
365.000	-1.688	365.000	3514339105.461	1973.049	373.355	2346.404	0.159	0.914	0.870	-2.510	2.461
366.000	-1.688	366.000	3514339106.961	799.600	1066.193	1865.793	0.571	0.914	0.870	-2.510	-2.942
367.000	1.688	367.000	3514339108.461	1821.645	239.070	2060.714	0.116	0.914	0.870	-2.510	-2.942
368.000	1.688	368.000	3514339109.959	1198.712	868.268	2066.980	0.420	1.638	0.870	-2.510	-2.942
369.000	3.095	369.000	3514339111.459	1675.480	434.726	2110.206	0.206	1.638	0.870	-2.510	-2.942
370.000	3.095	370.000	3514339112.959	1692.352	462.254	2154.606	0.215	1.638	0.058	-2.510	-2.942
371.000	2.724	371.000	3514339114.459	1871.196	269.755	2140.950	0.126	1.638	0.058	-2.510	-2.942
372.000	2.724	372.000	3514339115.960	1563.015	524.315	2087.330	0.251	1.638	0.058	3.628	-2.942
373.000	-0.715	373.000	3514339117.461	816.028	1251.983	2068.011	0.605	1.638	0.058	3.628	-2.942
374.000	-0.715	374.000	3514339118.962	2017.582	147.211	2164.793	0.068	1.638	0.058	3.628	2.676
375.000	-3.071	375.000	3514339120.461	1474.881	495.011	1969.892	0.251	1.638	0.058	3.628	2.676
376.000	-3.071	376.000	3514339121.961	1682.096	456.630	2138.725	0.214	0.075	0.058	3.628	2.676
377.000	-3.257	377.000	3514339123.460	1601.598	503.793	2105.391	0.239	0.075	0.058	3.628	2.676
378.000	-3.257	378.000	3514339124.960	1913.464	223.480	2136.945	0.105	0.075	1.102	3.628	2.676
379.000	-2.606	379.000	3514339126.460	1569.808	587.561	2157.368	0.272	0.075	1.102	3.628	2.676
388.000	1.133	388.000	3514339139.962	1620.912	691.457	2312.369	0.299	-1.185	-0.388	3.432	-0.332
389.000	-2.001	389.000	3514339141.461	1421.734	740.790	2162.524	0.343	-1.185	-0.388	3.432	-0.332
390.000	-2.001	390.000	3514339142.962	1909.024	513.659	2422.683	0.212	-1.185	-0.388	3.432	-1.585
391.000	0.203	391.000	3514339144.461	2162.637	152.045	2314.683	0.066	-1.185	-0.388	3.432	-1.585
392.000	0.203	392.000	3514339145.961	1315.706	725.497	2041.203	0.355	-1.128	-0.388	3.432	-1.585
393.000	-1.280	393.000	3514339147.461	2091.864	214.798	2306.661	0.093	-1.128	-0.388	3.432	-1.585
394.000	-1.280	394.000	3514339148.961	1192.186	845.278	2037.464	0.415	-1.128	0.861	3.432	-1.585
395.000	-0.756	395.000	3514339150.461	1962.704	421.998	2384.702	0.177	-1.128	0.861	3.432	-1.585
396.000	-0.756	396.000	3514339151.961	1479.898	739.803	2219.701	0.333	-1.128	0.861	-1.149	-1.585
397.000	0.811	397.000	3514339153.462	2278.566	150.664	2429.230	0.062	-1.128	0.861	-1.149	-1.585
398.000	0.811	398.000	3514339154.962	1130.470	1152.329	2282.799	0.505	-1.128	0.861	-1.149	2.550
399.000	-1.513	399.000	3514339156.462	1882.517	306.558	2189.075	0.140	-1.128	0.861	-1.149	2.550
400.000	-1.513	400.000	3514339157.960	1272.683	820.316	2092.998	0.392	2.831	0.861	-1.149	2.550
401.000	1.058	401.000	3514339159.460	1850.905	313.662	2164.566	0.145	2.831	0.861	-1.149	2.550
402.000	1.058	402.000	3514339160.962	1485.537	797.425	2282.961	0.349	2.831	1.376	-1.149	2.550
403.000	2.272	403.000	3514339162.461	2047.108	308.235	2355.343	0.131	2.831	1.376	-1.149	2.550
404.000	2.272	404.000	3514339163.961	1432.257	892.934	2325.191	0.384	2.831	1.376	3.896	2.550
405.000	-1.643	405.000	3514339165.461	1342.835	820.316	2163.150	0.379	2.831	1.376	3.896	2.550
406.000	-1.643	406.000	3514339166.961	2120.546	261.171	2381.717	0.110	2.831	1.376	3.896	2.217
407.000	-3.810	407.000	3514339168.462	1580.198	562.401	2142.598	0.262	2.831	1.376	3.896	2.217
408.000	-3.810	408.000	3514339169.961	1687.424	500.931	2188.355	0.229	1.799	1.376	3.896	2.217
409.000	-2.096	409.000	3514339171.472	1767.921	210.456	1978.377	0.106	1.799	1.376	3.896	2.217
410.000	-2.096	410.000	3514339172.962	2100.655	325.403	2426.058	0.134	1.799	2.228	3.896	2.217
411.000	0.082	411.000	3514339174.462	1809.568	477.251	2286.819	0.209	1.799	2.228	3.896	2.217
412.000	0.082	412.000	3514339175.961	2028.016	337.440	2365.457	0.143	1.799	2.228	-2.372	2.217
413.000	2.768	413.000	3514339177.462	2192.252	222.099	2414.351	0.092	1.799	2.228	-2.372	2.217
414.000	2.768	414.000	3514339178.962	1153.025	1253.759	2406.783	0.521	1.799	2.228	-2.372	-0.295
415.000	3.227	415.000	3514339180.471	1618.870	534.083	2152.953	0.248	1.799	2.228	-2.372	-0.295
416.000	3.227	416.000	3514339181.960	1877.811	406.112	2283.924	0.178	0.244	2.228	-2.372	-0.295
417.000	3.366	417.000	3514339183.462	1851.881	522.243	2374.125	0.220	0.244	2.228	-2.372	-0.295
418.000	3.366	418.000	3514339184.962	1909.824	427.424	2337.248	0.183	0.244	-0.581	-2.372	-0.295
419.000	2.617	419.000	3514339186.462	1841.092	625.646	2466.738	0.254	0.244	-0.581	-2.372	-0.295
420.000	2.617	420.000	3514339187.961	1839.005	457.715	2296.720	0.199	0.244	-0.581	3.775	-0.295
421.000	-1.190	421.000	3514339189.463	1262.959	1069.745	2332.704	0.459	0.244	-0.581	3.775	-0.295
422.000	-1.190	422.000	3514339190.962	2388.323	167.635	2555.958	0.066	0.244	-0.581	3.775	-0.618
423.000	-0.336	423.000	3514339192.462	1807.215	521.553	2328.768	0.224	0.244	-0.581	3.775	-0.618
424.000	-0.336	424.000	3514339193.962	1451.926	800.089	2252.015	0.355	-0.326	-0.581	3.775	-0.618
425.000	-0.803	425.000	3514339195.462	2086.092	534.774	2620.865	0.204	-0.326	-0.581	3.775	-0.618
426.000	-0.803	426.000	3514339196.961	1849.617	504.582	2354.199	0.214	-0.326	-0.478	3.775	-0.618
427.000	-1.305	427.000	3514339198.470	2036.008	570.195	2606.204	0.219	-0.326	-0.478	3.775	-0.618
428.000	-1.305	428.000	3514339199.962	1724.675	806.601	2531.276	0.319	-0.326	-0.478	-3.458	-0.618
429.000	2.378	429.000	3514339201.461	2225.463	228.808	2454.271	0.093	-0.326	-0.478	-3.458	-0.618
430.000	2.378	430.000	3514339202.962	1023.510	1512.167	2535.677	0.596	-0.326	-0.478	-3.458	1.156
431.000	1.292	431.000	3514339204.462	1965.279	307.051	2272.330	0.135	-0.326	-0.478	-3.458	1.156
432.000	1.292	432.000	3514339205.963	1242.091	976.505	2218.596	0.440	0.091	-0.478	-3.458	1.156
433.000	1.320	433.000	3514339207.472	2052.658	320.174	2372.832	0.135	0.091	-0.478	-3.458	1.156
434.000	1.320	434.000	3514339208.963	1542.768	647.155	2189.924	0.296	0.091	0.879	-3.458	1.156
435.000	2.204	435.000	3514339210.463	2069.131	366.547	2435.678	0.150	0.091	0.879	-3.458	1.156
444.000	-2.023	444.000	3514339223.962	1919.281	723.523	2642.804	0.274	1.413	1.547	-1.397	2.684
445.000	-0.604	445.000	3514339225.463	2154.778	616.569	2771.347	0.222	1.413	1.547	-1.397	2.684
446.000	-0.604	446.000	3514339226.963	1557.021	1040.540	2597.560	0.401	1.413	1.547	-1.397	-0.746
447.000	0.169	447.000	3514339228.463	1859.030	479.323	2338.353	0.205	1.413	1.547	-1.397	-0.746
448.000	0.169	448.000	3514339229.963	1268.287	919.870	2188.157	0.420	0.856	1.547	-1.397	-0.746
449.000	1.035	449.000	3514339231.463	1652.392	435.022	2087.414	0.208	0.856	1.547	-1.397	-0.746
450.000	1.035	450.000	3514339232.972	1800.289	526.289	2326.577	0.226	0.856	0.977	-1.397	-0.746
451.000	2.122	451.000	3514339234.462	2046.975	394.470	2441.445	0.162	0.856	0.977	-1.397	-0.746
452.000	2.122	452.000	3514339235.963	1884.959	655.542	2540.501	0.258	0.856	0.977	1.567	-0.746
453.000	0.510	453.000	3514339237.463	1663.403	971.670	2635.073	0.369	0.856	0.977	1.567	-0.746
454.000	0.510	454.000	3514339238.962	1158.575	1305.460	2464.035	0.530	0.856	0.977	1.567	1.896
455.000	-1.496	455.000	3514339240.464	1630.947	706.454	2337.401	0.302	0.856	0.977	1.567	1.896
456.000	-1.496	456.000	3514339241.973	1754.068	657.318	2411.386	0.273	0.157	0.977	1.567	1.896
457.000	-1.250	457.000	3514339243.463	2226.662	333.099	2559.761	0.130	0.157	0.977	1.567	1.896
458.000	-1.250	458.000	3514339244.963	1689.999	697.179	2387.178	0.292	0.157	0.849	1.567	1.896
459.000	-0.201	459.000	3514339246.462	2139.905	264.328	2404.233	0.110	0.157	0.849	1.567	1.896
460.000	-0.201	460.000	3514339247.963	1859.607	842.910	2702.517	0.312	0.157	0.849	1.417	1.896
461.000	-1.890	461.000	3514339249.463	2094.350	599.993	2694.343	0.223	0.157	0.849	1.417	1.896
462.000	-1.890	462.000	3514339250.972	1629.260	755.689	2384.948	0.317	0.157	0.849	1.417	-0.261
463.000	-1.934	463.000	3514339252.463	2093.995	301.526	2395.521	0.126	0.157	0.849	1.417	-0.261
464.000	-1.934	464.000	3514339253.963	1637.429	707.638	2345.067	0.302	1.425	0.849	1.417	-0.261
465.000	-0.331	465.000	3514339255.463	2181.729	351.056	2532.786	0.139	1.425	0.849	1.417	-0.261
466.000	-0.331	466.000	3514339256.962	1769.963	519.875	2289.838	0.227	1.425	1.777	1.417	-0.261
467.000	1.805	467.000	3514339258.473	1837.229	658.897	2496.126	0.264	1.425	1.777	1.417	-0.261
468.000	1.805	468.000	3514339259.964	1807.881	538.227	2346.108	0.229	1.425	1.777	0.829	-0.261
469.000	0.717	469.000	3514339261.464	1569.764	660.179	2229.943	0.296	1.425	1.777	0.829	-0.261
470.000	0.717	470.000	3514339262.963	1466.800	888.297	2355.097	0.377	1.425	1.777	0.829	1.548
471.000	-1.078	471.000	3514339264.464	1618.515	511.785	2130.299	0.240	1.425	1.777	0.829	1.548
472.000	-1.078	472.000	3514339265.972	1515.285	762.299	2277.584	0.335	0.778	1.777	0.829	1.548
473.000	-0.098	473.000	3514339267.463	2006.704	320.667	2327.372	0.138	0.778	1.777	0.829	1.548
474.000	-0.098	474.000	3514339268.963	1796.648	605.222	2401.870	0.252	0.778	-0.304	0.829	1.548
475.000	-0.002	475.000	3514339270.463	2069.175	334.086	2403.261	0.139	0.778	-0.304	0.829	1.548
476.000	-0.002	476.000	3514339271.963	1645.687	758.747	2404.435	0.316	0.778	-0.304	0.714	1.548
477.000	-1.108	477.000	3514339273.463	1368.010	865.603	2233.613	0.388	0.778	-0.304	0.714	1.548
478.000	-1.108	478.000	3514339274.963	1549.473	809.166	2358.639	0.343	0.778	-0.304	0.714	0.831
479.000	-2.294	479.000	3514339276.464	1761.350	677.643	2438.993	0.278	0.778	-0.304	0.714	0.831
480.000	-2.294	480.000	3514339277.964	1912.221	447.552	2359.773	0.190	1.005	-0.304	0.714	0.831
481.000	-0.941	481.000	3514339279.464	1943.124	425.254	2368.377	0.180	1.005	-0.304	0.714	0.831
482.000	-0.941	482.000	3514339280.964	1897.880	639.262	2537.142	0.252	1.005	1.554	0.714	0.831
483.000	1.092	483.000	3514339282.463	1836.918	669.849	2506.767	0.267	1.005	1.554	0.714	0.831
484.000	1.092	484.000	3514339283.964	2320.435	287.910	2608.345	0.110	1.005	1.554	-0.391	0.831
485.000	1.082	485.000	3514339285.471	1469.375	1001.073	2470.448	0.405	1.005	1.554	-0.391	0.831
486.000	1.082	486.000	3514339286.963	2143.412	375.920	2519.333	0.149	1.005	1.554	-0.391	-0.776
487.000	1.424	487.000	3514339288.463	1492.729	714.545	2207.274	0.324	1.005	1.554	-0.391	-0.776
488.000	1.424	488.000	3514339289.963	1595.960	562.203	2158.163	0.261	0.637	1.554	-0.391	-0.776
489.000	2.487	489.000	3514339291.462	1546.232	750.657	2296.888	0.327	0.637	1.554	-0.391	-0.776
490.000	2.487	490.000	3514339292.963	2052.792	460.971	2513.763	0.183	0.637	-1.380	-0.391	-0.776
491.000	1.549	491.000	3514339294.464	1881.940	610.846	2492.786	0.245	0.637	-1.380	-0.391	-0.776
492.000	1.549	492.000	3514339295.964	1965.190	552.830	2518.020	0.220	0.637	-1.380	-2.253	-0.776
493.000	3.430	493.000	3514339297.464	2453.812	168.720	2622.533	0.064	0.637	-1.380	-2.253	-0.776
494.000	3.430	494.000	3514339298.964	1437.141	984.497	2421.638	0.407	0.637	-1.380	-2.253	-0.556
495.000	3.617	495.000	3514339300.464	1802.775	537.833	2340.607	0.230	0.637	-1.380	-2.253	-0.556
496.000	3.617	496.000	3514339301.964	1266.245	813.705	2079.950	0.391	-1.262	-1.380	-2.253	-0.556
497.000	2.713	497.000	3514339303.464	1761.572	500.339	2261.911	0.221	-1.262	-1.380	-2.253	-0.556
498.000	2.713	498.000	3514339304.964	1700.344	431.667	2132.011	0.202	-1.262	-0.224	-2.253	-0.556
499.000	2.974	499.000	3514339306.464	1880.031	543.555	2423.586	0.224	-1.262	-0.224	-2.253	-0.556
500.000	2.974	500.000	3514339307.964	1710.867	584.403	2295.270	0.255	-1.262	-0.224	3.011	-0.556
501.000	-0.448	501.000	3514339309.463	1231.258	909.313	2140.570	0.425	-1.262	-0.224	3.011	-0.556
502.000	-0.448	502.000	3514339310.964	1838.783	550.857	2389.640	0.231	-1.262	-0.224	3.011	1.421
503.000	-2.418	503.000	3514339312.465	1593.251	586.278	2179.529	0.269	-1.262	-0.224	3.011	1.421
504.000	-2.418	504.000	3514339313.964	1748.074	315.438	2063.512	0.153	-0.165	-0.224	3.011	1.421
505.000	-2.116	505.000	3514339315.464	1795.449	435.910	2231.359	0.195	-0.165	-0.224	3.011	1.421
506.000	-2.116	506.000	3514339316.965	1699.900	650.115	2350.015	0.277	-0.165	0.267	3.011	1.421
507.000	-1.361	507.000	3514339318.464	1906.982	293.928	2200.910	0.134	-0.165	0.267	3.011	1.421
508.000	-1.361	508.000	3514339319.973	1879.187	660.475	2539.663	0.260	-0.165	0.267	-1.710	1.421
509.000	-0.138	509.000	3514339321.464	2072.328	301.230	2373.557	0.127	-0.165	0.267	-1.710	1.421
510.000	-0.138	510.000	3514339322.964	1140.992	996.140	2137.132	0.466	-0.165	0.267	-1.710	-1.022
511.000	0.411	511.000	3514339324.464	1615.052	745.329	2360.380	0.316	-0.165	0.267	-1.710	-1.022
512.000	0.411	512.000	3514339325.963	1459.119	813.211	2272.330	0.358	0.715	0.267	-1.710	-1.022
513.000	1.631	513.000	3514339327.464	1765.435	377.006	2142.440	0.176	0.715	0.267	-1.710	-1.022
514.000	1.631	514.000	3514339328.973	1569.763	447.454	2017.217	0.222	0.715	1.113	-1.710	-1.022
515.000	3.366	515.000	3514339330.474	1549.250	756.873	2306.123	0.328	0.715	1.113	-1.710	-1.022
516.000	3.366	516.000	3514339331.965	1669.175	576.017	2245.192	0.257	0.715	1.113	2.985	-1.022
517.000	-0.117	517.000	3514339333.465	797.380	1202.649	2000.030	0.601	0.715	1.113	2.985	-1.022
518.000	-0.117	518.000	3514339334.973	1971.007	75.776	2046.783	0.037	0.715	1.113	2.985	0.371
519.000	-0.900	519.000	3514339336.465	1720.235	429.595	2149.831	0.200	0.715	1.113	2.985	0.371
520.000	-0.900	520.000	3514339337.964	1537.484	576.313	2113.797	0.273	0.403	1.113	2.985	0.371
521.000	0.024	521.000	3514339339.463	1442.380	697.278	2139.658	0.326	0.403	1.113	2.985	0.371
522.000	0.024	522.000	3514339340.965	1886.025	317.806	2203.831	0.144	0.403	-0.630	2.985	0.371
523.000	-0.010	523.000	3514339342.465	1877.633	481.888	2359.522	0.204	0.403	-0.630	2.985	0.371
548.000	0.994	548.000	3514339379.966	1938.062	485.046	2423.108	0.200	0.739	-2.146	1.469	1.151
549.000	-1.022	549.000	3514339381.475	1589.610	428.707	2018.317	0.212	0.739	-2.146	1.469	1.151
550.000	-1.022	550.000	3514339382.974	1410.944	906.846	2317.791	0.391	0.739	-2.146	1.469	0.047
551.000	-1.823	551.000	3514339384.467	1400.067	761.313	2161.379	0.352	0.739	-2.146	1.469	0.047
552.000	-1.823	552.000	3514339385.974	1606.749	445.974	2052.723	0.217	0.311	-2.146	1.469	0.047
553.000	-0.879	553.000	3514339387.465	1729.204	678.137	2407.341	0.282	0.311	-2.146	1.469	0.047
554.000	-0.879	554.000	3514339388.966	2011.899	410.454	2422.353	0.169	0.311	0.296	1.469	0.047
555.000	0.138	555.000	3514339390.474	1803.263	617.358	2420.621	0.255	0.311	0.296	1.469	0.047
556.000	0.138	556.000	3514339391.973	1748.740	469.062	2217.802	0.211	0.311	0.296	1.574	0.047
557.000	-2.161	557.000	3514339393.473	1183.528	1171.767	2355.294	0.498	0.311	0.296	1.574	0.047
558.000	-2.161	558.000	3514339394.973	2157.886	241.536	2399.422	0.101	0.311	0.296	1.574	-1.188
559.000	-1.609	559.000	3514339396.472	1659.762	417.854	2077.616	0.201	0.311	0.296	1.574	-1.188
560.000	-1.609	560.000	3514339397.974	1430.924	696.982	2127.906	0.328	-0.988	0.296	1.574	-1.188
561.000	-2.106	561.000	3514339399.466	1708.070	547.897	2255.966	0.243	-0.988	0.296	1.574	-1.188
562.000	-2.106	562.000	3514339400.966	1681.651	285.443	1967.094	0.145	-0.988	-0.383	1.574	-1.188
563.000	-1.802	563.000	3514339402.474	1994.539	490.867	2485.406	0.197	-0.988	-0.383	1.574	-1.188
564.000	-1.802	564.000	3514339403.967	1962.437	415.190	2377.627	0.175	-0.988	-0.383	-3.492	-1.188
565.000	1.277	565.000	3514339405.467	2080.719	181.547	2262.266	0.080	-0.988	-0.383	-3.492	-1.188
566.000	1.277	566.000	3514339406.973	1240.626	1120.756	2361.381	0.475	-0.988	-0.383	-3.492	1.113
567.000	-0.459	567.000	3514339408.474	1318.548	533.097	1851.644	0.288	-0.988	-0.383	-3.492	1.113
568.000	-0.459	568.000	3514339409.973	1720.146	386.675	2106.822	0.184	-0.860	-0.383	-3.492	1.113
569.000	-0.924	569.000	3514339411.472	2102.742	234.432	2337.174	0.100	-0.860	-0.383	-3.492	1.113
570.000	-0.924	570.000	3514339412.973	1573.493	604.334	2177.827	0.277	-0.860	-0.201	-3.492	1.113
571.000	-0.517	571.000	3514339414.473	2137.374	418.150	2555.523	0.164	-0.860	-0.201	-3.492	1.113
572.000	-0.517	572.000	3514339415.974	1415.074	906.353	2321.427	0.390	-0.860	-0.201	3.470	1.113
573.000	-4.713	573.000	3514339417.474	1123.010	981.734	2104.745	0.466	-0.860	-0.201	3.470	1.113
574.000	-4.713	574.000	3514339418.973	2009.590	416.374	2425.964	0.172	-0.860	-0.201	3.470	-0.918
575.000	-4.421	575.000	3514339420.473	1823.110	519.678	2342.788	0.222	-0.860	-0.201	3.470	-0.918
576.000	-4.421	576.000	3514339421.974	1533.888	611.635	2145.523	0.285	1.559	-0.201	3.470	-0.918
577.000	-2.376	577.000	3514339423.474	1969.764	303.302	2273.065	0.133	1.559	-0.201	3.470	-0.918
578.000	-2.376	578.000	3514339424.974	1692.796	439.659	2132.455	0.206	1.559	1.996	3.470	-0.918
579.000	0.389	579.000	3514339426.471	1682.806	484.651	2167.457	0.224	1.559	1.996	3.470	-0.918
580.000	0.389	580.000	3514339427.974	1726.496	538.128	2264.624	0.238	1.559	1.996	-2.594	-0.918
581.000	2.525	581.000	3514339429.474	1917.993	486.427	2404.420	0.202	1.559	1.996	-2.594	-0.918
582.000	2.525	582.000	3514339430.974	1133.444	1047.446	2180.891	0.480	1.559	1.996	-2.594	0.557
583.000	1.244	583.000	3514339432.474	1722.855	537.142	2259.997	0.238	1.559	1.996	-2.594	0.557
584.000	1.244	584.000	3514339433.973	1494.283	655.838	2150.121	0.305	0.640	1.996	-2.594	0.557
585.000	2.447	585.000	3514339435.474	1931.801	248.344	2180.146	0.114	0.640	1.996	-2.594	0.557
586.000	2.447	586.000	3514339436.974	1744.833	627.718	2372.551	0.265	0.640	0.123	-2.594	0.557
587.000	3.417	587.000	3514339438.473	1794.428	513.166	2307.594	0.222	0.640	0.123	-2.594	0.557
588.000	3.417	588.000	3514339439.974	2061.760	624.857	2686.617	0.233	0.640	0.123	2.446	0.557
589.000	0.196	589.000	3514339441.473	1470.885	947.102	2417.987	0.392	0.640	0.123	2.446	0.557
590.000	0.196	590.000	3514339442.974	2057.009	561.118	2618.127	0.214	0.640	0.123	2.446	0.593
591.000	-1.141	591.000	3514339444.474	956.999	951.345	1908.344	0.499	0.640	0.123	2.446	0.593
592.000	-1.141	592.000	3514339445.973	1734.399	514.448	2248.847	0.229	1.326	0.123	2.446	0.593
593.000	0.845	593.000	3514339447.472	1362.904	766.443	2129.347	0.360	1.326	0.123	2.446	0.593
594.000	0.845	594.000	3514339448.974	1635.609	173.752	1809.361	0.096	1.326	0.090	2.446	0.593
595.000	1.785	595.000	3514339450.475	1364.058	872.707	2236.766	0.390	1.326	0.090	2.446	0.593
596.000	1.785	596.000	3514339451.975	1683.516	586.870	2270.386	0.258	1.326	0.090	-1.561	0.593
597.000	2.821	597.000	3514339453.474	1736.841	618.049	2354.890	0.262	1.326	0.090	-1.561	0.593
598.000	2.821	598.000	3514339454.974	1504.718	861.755	2366.473	0.364	1.326	0.090	-1.561	-2.374
599.000	4.662	599.000	3514339456.475	1812.498	500.635	2313.134	0.216	1.326	0.090	-1.561	-2.374
600.000	4.662	600.000	3514339457.973	1147.164	685.241	1832.405	0.374	-2.322	0.090	-1.561	-2.374
601.000	2.849	601.000	3514339459.474	1745.765	460.576	2206.342	0.209	-2.322	0.090	-1.561	-2.374
602.000	2.849	602.000	3514339460.974	1384.304	621.305	2005.609	0.310	-2.322	-1.159	-1.561	-2.374
603.000	2.448	603.000	3514339462.474	1410.012	772.068	2182.080	0.354	-2.322	-1.159	-1.561	-2.374
604.000	2.448	604.000	3514339463.973	1525.985	717.505	2243.490	0.320	-2.322	-1.159	0.895	-2.374
605.000	0.889	605.000	3514339465.474	1032.479	1044.782	2077.261	0.503	-2.322	-1.159	0.895	-2.374
606.000	0.889	606.000	3514339466.974	1883.272	655.542	2538.814	0.258	-2.322	-1.159	0.895	1.386
607.000	-1.159	607.000	3514339468.474	1438.206	730.627	2168.833	0.337	-2.322	-1.159	0.895	1.386
608.000	-1.159	608.000	3514339469.975	1816.539	361.318	2177.856	0.166	0.889	-1.159	0.895	1.386
609.000	0.271	609.000	3514339471.474	1705.095	443.606	2148.700	0.206	0.889	-1.159	0.895	1.386
610.000	0.271	610.000	3514339472.975	1899.611	252.982	2152.593	0.118	0.889	-0.299	0.895	1.386
611.000	0.697	611.000	3514339474.475	1716.950	516.323	2233.273	0.231	0.889	-0.299	0.895	1.386
612.000	0.697	612.000	3514339475.974	2023.310	356.088	2379.398	0.150	0.889	-0.299	-2.154	1.386
613.000	2.338	613.000	3514339477.474	1718.682	453.571	2172.253	0.209	0.889	-0.299	-2.154	1.386
614.000	2.338	614.000	3514339478.975	1604.262	540.003	2144.265	0.252	0.889	-0.299	-2.154	-1.505
615.000	3.317	615.000	3514339480.474	1332.623	616.865	1949.488	0.316	0.889	-0.299	-2.154	-1.505
616.000	3.317	616.000	3514339481.974	997.713	1116.118	2113.832	0.528	-0.783	-0.299	-2.154	-1.505
617.000	3.055	617.000	3514339483.474	1855.700	470.739	2326.439	0.202	-0.783	-0.299	-2.154	-1.505
618.000	3.055	618.000	3514339484.974	1790.210	347.307	2137.517	0.162	-0.783	-0.718	-2.154	-1.505
619.000	3.015	619.000	3514339486.474	1525.142	764.371	2289.513	0.334	-0.783	-0.718	-2.154	-1.505
620.000	3.015	620.000	3514339487.974	1657.143	359.936	2017.079	0.178	-0.783	-0.718	0.379	-1.505
621.000	2.152	621.000	3514339489.475	1930.380	475.771	2406.152	0.198	-0.783	-0.718	0.379	-1.505
622.000	2.152	622.000	3514339490.975	1126.207	942.761	2068.968	0.456	-0.783	-0.718	0.379	1.862
623.000	-0.362	623.000	3514339492.476	1239.827	779.369	2019.196	0.386	-0.783	-0.718	0.379	1.862
624.000	-0.362	624.000	3514339493.974	1825.952	276.070	2102.021	0.131	-0.351	-0.718	0.379	1.862
625.000	-0.261	625.000	3514339495.474	1913.953	472.416	2386.369	0.198	-0.351	-0.718	0.379	1.862
626.000	-0.261	626.000	3514339496.974	1512.532	622.982	2135.514	0.292	-0.351	-1.368	0.379	1.862
627.000	-1.084	627.000	3514339498.474	1822.488	473.502	2295.990	0.206	-0.351	-1.368	0.379	1.862
628.000	-1.084	628.000	3514339499.974	1573.671	377.696	1951.367	0.194	-0.351	-1.368	2.270	1.862
629.000	-3.920	629.000	3514339501.468	756.044	1485.921	2241.965	0.663	-0.351	-1.368	2.270	1.862
630.000	-3.920	630.000	3514339502.975	2241.358	162.800	2404.158	0.068	-0.351	-1.368	2.270	-2.241
631.000	-2.160	631.000	3514339504.475	1432.834	547.305	1980.138	0.276	-0.351	-1.368	2.270	-2.241
632.000	-2.160	632.000	3514339505.974	1588.589	435.712	2024.302	0.215	0.825	-1.368	2.270	-2.241
633.000	-0.866	633.000	3514339507.475	1323.432	458.406	1781.838	0.257	0.825	-1.368	2.270	-2.241
634.000	-0.866	634.000	3514339508.975	2008.924	216.080	2225.005	0.097	0.825	-0.112	2.270	-2.241
635.000	-0.414	635.000	3514339510.475	42.713	97.779	140.492	0.696	0.825	-0.112	2.270	-2.241
684.000	8.106	684.000	3514339583.975	2174.004	-12.037	2161.966	-0.006	0.492	-0.948	-0.083	-1.111
685.000	7.846	685.000	3514339585.474	1521.146	338.526	1859.671	0.182	0.492	-0.948	-0.083	-1.111
686.000	7.846	686.000	3514339586.975	1470.352	715.433	2185.785	0.327	0.492	-0.948	-0.083	-1.515
687.000	9.116	687.000	3514339588.476	959.973	734.969	1694.942	0.434	0.492	-0.948	-0.083	-1.515
688.000	9.116	688.000	3514339589.974	1557.553	210.358	1767.911	0.119	-2.995	-0.948	-0.083	-1.515
689.000	6.386	689.000	3514339591.475	1617.494	582.726	2200.219	0.265	-2.995	-0.948	-0.083	-1.515
690.000	6.386	690.000	3514339592.976	1791.630	241.536	2033.167	0.119	-2.995	-3.586	-0.083	-1.515
691.000	3.135	691.000	3514339594.475	1331.646	708.625	2040.271	0.347	-2.995	-3.586	-0.083	-1.515
692.000	3.135	692.000	3514339595.975	2198.202	47.853	2246.055	0.021	-2.995	-3.586	1.278	-1.515
693.000	1.602	693.000	3514339597.475	1067.421	847.449	1914.870	0.443	-2.995	-3.586	1.278	-1.515
694.000	1.602	694.000	3514339598.975	1971.007	236.406	2207.412	0.107	-2.995	-3.586	1.278	-2.769
695.000	4.228	695.000	3514339600.475	1352.647	378.091	1730.739	0.218	-2.995	-3.586	1.278	-2.769
696.000	4.228	696.000	3514339601.975	967.122	770.686	1737.808	0.443	-1.285	-3.586	1.278	-2.769
697.000	3.147	697.000	3514339603.475	1442.602	572.563	2015.165	0.284	-1.285	-3.586	1.278	-2.769
698.000	3.147	698.000	3514339604.975	1795.005	178.686	1973.691	0.091	-1.285	-2.869	1.278	-2.769
699.000	0.474	699.000	3514339606.475	1877.323	495.603	2372.926	0.209	-1.285	-2.869	1.278	-2.769
700.000	0.474	700.000	3514339607.977	1509.157	507.640	2016.798	0.252	-1.285	-2.869	-2.952	-2.769
701.000	3.242	701.000	3514339609.475	1629.481	618.049	2247.530	0.275	-1.285	-2.869	-2.952	-2.769
702.000	3.242	702.000	3514339610.977	1714.108	459.984	2174.093	0.212	-1.285	-2.869	-2.952	1.980
703.000	1.055	703.000	3514339612.476	1355.977	520.960	1876.938	0.278	-1.285	-2.869	-2.952	1.980
704.000	1.055	704.000	3514339613.976	1604.928	488.006	2092.934	0.233	-1.704	-2.869	-2.952	1.980
705.000	-0.579	705.000	3514339615.475	1462.093	386.083	1848.176	0.209	-1.704	-2.869	-2.952	1.980
706.000	-0.579	706.000	3514339616.975	1685.781	84.952	1770.733	0.048	-1.704	0.377	-2.952	1.980
707.000	-0.014	707.000	3514339618.475	1662.027	761.510	2423.537	0.314	-1.704	0.377	-2.952	1.980
708.000	-0.014	708.000	3514339619.975	1961.061	342.275	2303.336	0.149	-1.704	0.377	-0.558	1.980
709.000	0.552	709.000	3514339621.474	1279.165	500.339	1779.504	0.281	-1.704	0.377	-0.558	1.980
710.000	0.552	710.000	3514339622.975	713.198	1165.649	1878.847	0.620	-1.704	0.377	-0.558	-0.391
711.000	0.798	711.000	3514339624.475	829.437	981.438	1810.875	0.542	-1.704	0.377	-0.558	-0.391
712.000	0.798	712.000	3514339625.976	1445.000	326.291	1771.291	0.184	-1.416	0.377	-0.558	-0.391
713.000	-0.661	713.000	3514339627.475	1511.200	338.131	1849.331	0.183	-1.416	0.377	-0.558	-0.391
714.000	-0.661	714.000	3514339628.976	1326.185	572.761	1898.946	0.302	-1.416	-1.457	-0.558	-0.391
715.000	-2.074	715.000	3514339630.475	1895.882	316.720	2212.602	0.143	-1.416	-1.457	-0.558	-0.391
716.000	-2.074	716.000	3514339631.976	1453.480	469.753	1923.232	0.244	-1.416	-1.457	2.985	-0.391
717.000	-5.424	717.000	3514339633.476	487.113	1190.118	1677.231	0.710	-1.416	-1.457	2.985	-0.391
718.000	-5.424	718.000	3514339634.975	1725.119	461.760	2186.880	0.211	-1.416	-1.457	2.985	-3.148
719.000	-2.281	719.000	3514339636.476	1610.789	253.574	1864.363	0.136	-1.416	-1.457	2.985	-3.148
720.000	-2.281	720.000	3514339637.974	1411.167	405.520	1816.687	0.223	1.045	-1.457	2.985	-3.148
721.000	-1.175	721.000	3514339639.475	1536.818	534.577	2071.395	0.258	1.045	-1.457	2.985	-3.148
722.000	-1.175	722.000	3514339640.974	1754.912	213.515	1968.427	0.108	1.045	0.890	2.985	-3.148
723.000	-0.194	723.000	3514339642.474	1395.671	533.984	1929.655	0.277	1.045	0.890	2.985	-3.148
732.000	0.474	732.000	3514339655.976	1704.118	482.875	2186.993	0.221	-1.317	-1.775	2.560	0.767
733.000	-2.272	733.000	3514339657.476	1464.802	585.686	2050.488	0.286	-1.317	-1.775	2.560	0.767
734.000	-2.272	734.000	3514339658.976	1592.763	546.219	2138.982	0.255	-1.317	-1.775	2.560	-1.063
735.000	-1.082	735.000	3514339660.476	1383.106	568.222	1951.328	0.291	-1.317	-1.775	2.560	-1.063
736.000	-1.082	736.000	3514339661.977	1175.136	554.507	1729.643	0.321	0.456	-1.775	2.560	-1.063
737.000	-0.644	737.000	3514339663.476	1498.724	393.384	1892.108	0.208	0.456	-1.775	2.560	-1.063
738.000	-0.644	738.000	3514339664.976	1543.434	451.992	1995.427	0.227	0.456	-0.314	2.560	-1.063
739.000	-1.114	739.000	3514339666.476	1685.736	413.216	2098.953	0.197	0.456	-0.314	2.560	-1.063
740.000	-1.114	740.000	3514339667.977	1895.971	313.859	2209.830	0.142	0.456	-0.314	-0.266	-1.063
741.000	-0.927	741.000	3514339669.476	852.303	1053.662	1905.966	0.553	0.456	-0.314	-0.266	-1.063
742.000	-0.927	742.000	3514339670.975	2114.508	212.232	2326.740	0.091	0.456	-0.314	-0.266	0.259
743.000	-1.087	743.000	3514339672.476	1649.284	91.661	1740.945	0.053	0.456	-0.314	-0.266	0.259
744.000	-1.087	744.000	3514339673.976	944.966	652.582	1597.548	0.408	0.164	-0.314	-0.266	0.259
745.000	-0.975	745.000	3514339675.474	1395.182	479.224	1874.407	0.256	0.164	-0.314	-0.266	0.259
746.000	-0.975	746.000	3514339676.975	1755.223	292.152	2047.375	0.143	0.164	-0.483	-0.266	0.259
747.000	-1.575	747.000	3514339678.476	1486.735	461.958	1948.693	0.237	0.164	-0.483	-0.266	0.259
756.000	-2.311	756.000	3514339691.975	1835.098	201.675	2036.773	0.099	-0.994	-0.642	2.356	3.131
757.000	-4.685	757.000	3514339693.476	1040.915	887.804	1928.718	0.460	-0.994	-0.642	2.356	3.131
766.000	2.176	766.000	3514339706.976	1373.338	800.878	2174.216	0.368	-0.425	-0.638	-3.133	1.453
767.000	0.972	767.000	3514339708.476	1561.505	215.982	1777.487	0.122	-0.425	-0.638	-3.133	1.453
768.000	0.972	768.000	3514339709.976	1998.091	231.176	2229.267	0.104	0.900	-0.638	-3.133	1.453
769.000	1.720	769.000	3514339711.475	15.984	61.371	77.355	0.793	0.900	-0.638	-3.133	1.453
770.000	1.720	770.000	3514339712.976	41.825	55.352	97.177	0.570	0.900	1.805	-3.133	1.453
771.000	3.315	771.000	3514339714.478	-21.845	35.816	13.971	2.564	0.900	1.805	-3.133	1.453
772.000	3.315	772.000	3514339715.977	-0.178	14.701	14.524	1.012	0.900	1.805	-0.289	1.453
773.000	3.873	773.000	3514339717.476	19.358	2.368	21.726	0.109	0.900	1.805	-0.289	1.453
774.000	3.873	774.000	3514339718.976	-41.336	-176.614	-217.950	0.810	0.900	1.805	-0.289	-0.157
775.000	4.365	775.000	3514339720.476	71.662	11.051	82.712	0.134	0.900	1.805	-0.289	-0.157
848.000	11.517	848.000	3514339829.977	1138.195	1020.313	2158.508	0.473	1.134	2.338	0.302	0.080
849.000	12.400	849.000	3514339831.477	1704.207	512.475	2216.682	0.231	1.134	2.338	0.302	0.080
850.000	12.400	850.000	3514339832.977	2142.435	71.237	2213.673	0.032	1.134	-3.352	0.302	0.080
851.000	8.590	851.000	3514339834.477	2017.538	154.117	2171.656	0.071	1.134	-3.352	0.302	0.080
852.000	8.590	852.000	3514339835.978	1927.406	348.886	2276.292	0.153	1.134	-3.352	1.339	0.080
853.000	7.578	853.000	3514339837.478	1311.488	766.739	2078.228	0.369	1.134	-3.352	1.339	0.080
862.000	2.708	862.000	3514339850.978	1541.259	790.715	2331.974	0.339	-1.751	0.724	-0.401	-2.050
863.000	5.272	863.000	3514339852.479	1989.211	156.189	2145.400	0.073	-1.751	0.724	-0.401	-2.050
864.000	5.272	864.000	3514339853.978	1468.531	536.057	2004.588	0.267	-0.652	0.724	-0.401	-2.050
865.000	4.237	865.000	3514339855.478	1663.137	510.995	2174.132	0.235	-0.652	0.724	-0.401	-2.050
866.000	4.237	866.000	3514339856.978	1580.908	648.339	2229.247	0.291	-0.652	-0.823	-0.401	-2.050
867.000	2.871	867.000	3514339858.479	1957.376	243.214	2200.589	0.111	-0.652	-0.823	-0.401	-2.050
868.000	2.871	868.000	3514339859.978	1476.124	544.641	2020.764	0.270	-0.652	-0.823	1.248	-2.050
869.000	1.942	869.000	3514339861.478	2237.007	263.342	2500.349	0.105	-0.652	-0.823	1.248	-2.050
870.000	1.942	870.000	3514339862.977	1217.449	880.700	2098.149	0.420	-0.652	-0.823	1.248	1.713
871.000	0.603	871.000	3514339864.477	1556.710	413.808	1970.518	0.210	-0.652	-0.823	1.248	1.713
872.000	0.603	872.000	3514339865.977	1368.010	508.035	1876.045	0.271	0.491	-0.823	1.248	1.713
873.000	0.729	873.000	3514339867.477	1846.775	238.083	2084.858	0.114	0.491	-0.823	1.248	1.713
874.000	0.729	874.000	3514339868.977	1807.570	308.334	2115.904	0.146	0.491	1.399	1.248	1.713
875.000	1.606	875.000	3514339870.479	1585.437	686.129	2271.565	0.302	0.491	1.399	1.248	1.713
876.000	1.606	876.000	3514339871.978	1726.984	267.683	1994.667	0.134	0.491	1.399	2.767	1.713
877.000	-0.920	877.000	3514339873.479	1264.469	964.172	2228.640	0.433	0.491	1.399	2.767	1.713
878.000	-0.920	878.000	3514339874.978	2219.425	80.216	2299.641	0.035	0.491	1.399	2.767	0.535
879.000	-1.092	879.000	3514339876.479	1635.964	404.040	2040.004	0.198	0.491	1.399	2.767	0.535
880.000	-1.092	880.000	3514339877.978	1497.214	627.915	2125.129	0.295	0.277	1.399	2.767	0.535
881.000	-1.193	881.000	3514339879.478	1741.148	334.086	2075.233	0.161	0.277	1.399	2.767	0.535
882.000	-1.193	882.000	3514339880.978	1775.291	342.374	2117.665	0.162	0.277	-1.477	2.767	0.535
883.000	-3.293	883.000	3514339882.478	1879.631	305.768	2185.400	0.140	0.277	-1.477	2.767	0.535
884.000	-3.293	884.000	3514339883.977	1842.557	463.832	2306.390	0.201	0.277	-1.477	-3.500	0.535
885.000	0.773	885.000	3514339885.478	2068.420	-8.485	2059.935	-0.004	0.277	-1.477	-3.500	0.535
886.000	0.773	886.000	3514339886.977	960.151	1252.871	2213.021	0.566	0.277	-1.477	-3.500	0.857
887.000	0.229	887.000	3514339888.479	1463.603	314.352	1777.955	0.177	0.277	-1.477	-3.500	0.857
888.000	0.229	888.000	3514339889.978	1969.186	253.278	2222.464	0.114	0.006	-1.477	-3.500	0.857
889.000	-0.226	889.000	3514339891.479	1469.952	514.350	1984.302	0.259	0.006	-1.477	-3.500	0.857
890.000	-0.226	890.000	3514339892.979	1624.065	499.649	2123.713	0.235	0.006	0.539	-3.500	0.857
891.000	-0.280	891.000	3514339894.479	2056.565	241.931	2298.496	0.105	0.006	0.539	-3.500	0.857
916.000	-2.084	916.000	3514339931.978	1389.988	935.657	2325.645	0.402	1.956	-0.171	-3.067	-3.202
917.000	1.280	917.000	3514339933.479	1967.144	103.995	2071.139	0.050	1.956	-0.171	-3.067	-3.202
918.000	1.280	918.000	3514339934.978	1493.839	825.742	2319.582	0.356	1.956	-0.171	-3.067	3.988
919.000	-2.568	919.000	3514339936.479	1510.623	707.539	2218.162	0.319	1.956	-0.171	-3.067	3.988
920.000	-2.568	920.000	3514339937.978	2125.474	147.014	2272.488	0.065	-0.829	-0.171	-3.067	3.988
921.000	-3.673	921.000	3514339939.478	1988.456	275.872	2264.328	0.122	-0.829	-0.171	-3.067	3.988
922.000	-3.673	922.000	3514339940.979	2084.227	338.032	2422.259	0.140	-0.829	2.558	-3.067	3.988
923.000	-1.339	923.000	3514339942.479	1614.741	588.449	2203.189	0.267	-0.829	2.558	-3.067	3.988
924.000	-1.339	924.000	3514339943.979	1932.956	361.811	2294.767	0.158	-0.829	2.558	2.691	3.988
925.000	-3.987	925.000	3514339945.479	1078.211	992.588	2070.798	0.479	-0.829	2.558	2.691	3.988
926.000	-3.987	926.000	3514339946.979	1445.399	594.665	2040.064	0.291	-0.829	2.558	2.691	-2.238
927.000	-1.499	927.000	3514339948.479	1902.897	293.632	2196.529	0.134	-0.829	2.558	2.691	-2.238
928.000	-1.499	928.000	3514339949.978	1602.708	584.601	2187.309	0.267	0.156	2.558	2.691	-2.238
929.000	-1.551	929.000	3514339951.478	1804.906	227.822	2032.728	0.112	0.156	2.558	2.691	-2.238
930.000	-1.551	930.000	3514339952.978	1756.333	431.568	2187.901	0.197	0.156	-0.963	2.691	-2.238
931.000	-2.825	931.000	3514339954.477	1980.198	431.174	2411.371	0.179	0.156	-0.963	2.691	-2.238
932.000	-2.825	932.000	3514339955.978	1640.848	693.233	2334.081	0.297	0.156	-0.963	-1.653	-2.238
933.000	-1.063	933.000	3514339957.480	1376.712	649.918	2026.630	0.321	0.156	-0.963	-1.653	-2.238
934.000	-1.063	934.000	3514339958.979	1639.649	594.467	2234.116	0.266	0.156	-0.963	-1.653	1.176
935.000	-2.185	935.000	3514339960.480	1342.524	518.494	1861.018	0.279	0.156	-0.963	-1.653	1.176
936.000	-2.185	936.000	3514339961.979	1833.766	421.702	2255.468	0.187	0.750	-0.963	-1.653	1.176
937.000	-1.548	937.000	3514339963.479	1704.385	149.085	1853.470	0.080	0.750	-0.963	-1.653	1.176
938.000	-1.548	938.000	3514339964.979	1489.133	431.963	1921.096	0.225	0.750	1.040	-1.653	1.176
939.000	-0.720	939.000	3514339966.478	1623.399	469.555	2092.954	0.224	0.750	1.040	-1.653	1.176
940.000	-0.720	940.000	3514339967.978	2066.866	257.422	2324.288	0.111	0.750	1.040	-0.481	1.176
941.000	0.048	941.000	3514339969.478	1646.753	552.435	2199.188	0.251	0.750	1.040	-0.481	1.176
942.000	0.048	942.000	3514339970.978	843.201	1099.246	1942.448	0.566	0.750	1.040	-0.481	-0.806
943.000	0.990	943.000	3514339972.478	1743.590	519.678	2263.268	0.230	0.750	1.040	-0.481	-0.806
944.000	0.990	944.000	3514339973.979	1153.691	1117.697	2271.387	0.492	1.271	1.040	-0.481	-0.806
945.000	2.156	945.000	3514339975.479	1700.832	698.758	2399.590	0.291	1.271	1.040	-0.481	-0.806
946.000	2.156	946.000	3514339976.979	1607.459	548.883	2156.343	0.255	1.271	-1.000	-0.481	-0.806
947.000	0.837	947.000	3514339978.479	1917.282	300.440	2217.723	0.135	1.271	-1.000	-0.481	-0.806
948.000	0.837	948.000	3514339979.979	1688.090	632.849	2320.938	0.273	1.271	-1.000	2.769	-0.806
949.000	-1.970	949.000	3514339981.480	1197.025	1173.246	2370.271	0.495	1.271	-1.000	2.769	-0.806
950.000	-1.970	950.000	3514339982.979	1860.007	356.976	2216.983	0.161	1.271	-1.000	2.769	2.310
951.000	-4.309	951.000	3514339984.479	1188.634	857.710	2046.344	0.419	1.271	-1.000	2.769	2.310
952.000	-4.309	952.000	3514339985.978	1844.555	461.662	2306.217	0.200	-0.323	-1.000	2.769	2.310
953.000	-4.695	953.000	3514339987.479	2007.281	259.691	2266.972	0.115	-0.323	-1.000	2.769	2.310
954.000	-4.695	954.000	3514339988.978	2028.682	380.163	2408.845	0.158	-0.323	1.207	2.769	2.310
955.000	-3.677	955.000	3514339990.478	1953.646	506.062	2459.708	0.206	-0.323	1.207	2.769	2.310
956.000	-3.677	956.000	3514339991.978	1974.514	152.736	2127.250	0.072	-0.323	1.207	-2.939	2.310
957.000	-0.509	957.000	3514339993.479	1713.042	512.278	2225.320	0.230	-0.323	1.207	-2.939	2.310
958.000	-0.509	958.000	3514339994.980	1122.478	960.422	2082.900	0.461	-0.323	1.207	-2.939	-1.927
959.000	1.491	959.000	3514339996.480	1681.785	618.739	2300.524	0.269	-0.323	1.207	-2.939	-1.927
960.000	1.491	960.000	3514339997.979	1519.458	694.614	2214.072	0.314	0.381	1.207	-2.939	-1.927
961.000	1.800	961.000	3514339999.479	1804.595	471.825	2276.420	0.207	0.381	1.207	-2.939	-1.927
962.000	1.800	962.000	3514340000.979	1788.078	506.752	2294.831	0.221	0.381	-1.179	-2.939	-1.927
963.000	0.380	963.000	3514340002.479	1933.533	317.214	2250.747	0.141	0.381	-1.179	-2.939	-1.927
964.000	0.380	964.000	3514340003.979	1699.056	373.848	2072.905	0.180	0.381	-1.179	2.032	-1.927
965.000	-1.516	965.000	3514340005.479	1120.435	936.545	2056.980	0.455	0.381	-1.179	2.032	-1.927
966.000	-1.516	966.000	3514340006.979	1787.856	586.870	2374.726	0.247	0.381	-1.179	2.032	0.394
967.000	-1.702	967.000	3514340008.479	1488.156	614.299	2102.456	0.292	0.381	-1.179	2.032	0.394
968.000	-1.702	968.000	3514340009.980	1259.718	957.660	2217.377	0.432	0.119	-1.179	2.032	0.394
969.000	-1.659	969.000	3514340011.480	2016.783	92.648	2109.431	0.044	0.119	-1.179	2.032	0.394
970.000	-1.659	970.000	3514340012.979	1807.526	327.080	2134.606	0.153	0.119	0.347	2.032	0.394
971.000	-1.517	971.000	3514340014.479	2013.098	348.491	2361.589	0.148	0.119	0.347	2.032	0.394
972.000	-1.517	972.000	3514340015.979	1685.559	625.153	2310.711	0.271	0.119	0.347	-1.832	0.394
973.000	0.350	973.000	3514340017.480	1799.312	437.883	2237.195	0.196	0.119	0.347	-1.832	0.394
974.000	0.350	974.000	3514340018.979	1407.259	766.838	2174.097	0.353	0.119	0.347	-1.832	1.229
975.000	-0.952	975.000	3514340020.480	1401.488	721.451	2122.939	0.340	0.119	0.347	-1.832	1.229
984.000	0.317	984.000	3514340033.980	1549.517	584.403	2133.920	0.274	0.009	1.082	1.381	-1.629
985.000	0.299	985.000	3514340035.480	1790.831	516.027	2306.858	0.224	0.009	1.082	1.381	-1.629
986.000	0.299	986.000	3514340036.979	1860.761	527.670	2388.431	0.221	0.009	0.308	1.381	-1.629
987.000	0.536	987.000	3514340038.479	2078.322	460.083	2538.405	0.181	0.009	0.308	1.381	-1.629
988.000	0.536	988.000	3514340039.979	2303.607	200.392	2504.000	0.080	0.009	0.308	-0.409	-1.629
989.000	0.887	989.000	3514340041.479	1778.799	668.566	2447.365	0.273	0.009	0.308	-0.409	-1.629
990.000	0.887	990.000	3514340042.980	1712.021	683.662	2395.683	0.285	0.009	0.308	-0.409	0.358
991.000	0.560	991.000	3514340044.480	1639.693	793.873	2433.566	0.326	0.009	0.308	-0.409	0.358
992.000	0.560	992.000	3514340045.980	1322.633	727.766	2050.399	0.355	-0.024	0.308	-0.409	0.358
993.000	0.531	993.000	3514340047.480	1794.339	310.899	2105.238	0.148	-0.024	0.308	-0.409	0.358
994.000	0.531	994.000	3514340048.980	1781.108	415.584	2196.692	0.189	-0.024	-0.891	-0.409	0.358
995.000	-0.556	995.000	3514340050.480	2280.697	-39.664	2241.033	-0.018	-0.024	-0.891	-0.409	0.358
996.000	-0.556	996.000	3514340051.978	2390.542	220.224	2610.767	0.084	-0.024	-0.891	0.107	0.358
997.000	-0.760	997.000	3514340053.479	1064.091	1073.001	2137.093	0.502	-0.024	-0.891	0.107	0.358
998.000	-0.760	998.000	3514340054.978	1956.000	654.161	2610.160	0.251	-0.024	-0.891	0.107	0.253
999.000	-1.133	999.000	3514340056.478	1450.949	752.137	2203.086	0.341	-0.024	-0.891	0.107	0.253
1000.000	-1.133	1000.000	3514340057.977	1188.900	896.782	2085.682	0.430	0.365	-0.891	0.107	0.253
1001.000	-0.795	1001.000	3514340059.477	1893.351	568.715	2462.066	0.231	0.365	-0.891	0.107	0.253
1010.000	-1.184	1010.000	3514340072.979	1461.738	628.507	2090.246	0.301	-1.355	-0.090	-2.213	0.779
1011.000	-1.591	1011.000	3514340074.478	2281.896	282.286	2564.182	0.110	-1.355	-0.090	-2.213	0.779
1012.000	-1.591	1012.000	3514340075.979	1665.179	800.483	2465.663	0.325	-1.355	-0.090	3.211	0.779
1013.000	-4.905	1013.000	3514340077.478	1206.482	1131.708	2338.190	0.484	-1.355	-0.090	3.211	0.779
1014.000	-4.905	1014.000	3514340078.978	1860.895	370.395	2231.290	0.166	-1.355	-0.090	3.211	-1.327
1015.000	-3.517	1015.000	3514340080.479	1791.053	471.824	2262.878	0.209	-1.355	-0.090	3.211	-1.327
1016.000	-3.517	1016.000	3514340081.979	1478.566	642.715	2121.281	0.303	1.267	-0.090	3.211	-1.327
1017.000	-2.339	1017.000	3514340083.479	1885.181	253.179	2138.360	0.118	1.267	-0.090	3.211	-1.327
1018.000	-2.339	1018.000	3514340084.978	1928.827	350.464	2279.291	0.154	1.267	1.888	3.211	-1.327
1019.000	-0.510	1019.000	3514340086.479	2063.359	352.536	2415.895	0.146	1.267	1.888	3.211	-1.327
1020.000	-0.510	1020.000	3514340087.979	1624.553	583.713	2208.266	0.264	1.267	1.888	-2.798	-1.327
1021.000	2.284	1021.000	3514340089.480	1848.773	224.467	2073.240	0.108	1.267	1.888	-2.798	-1.327
1022.000	2.284	1022.000	3514340090.979	911.089	1328.153	2239.242	0.593	1.267	1.888	-2.798	0.831
1023.000	1.358	1023.000	3514340092.479	1801.043	693.331	2494.375	0.278	1.267	1.888	-2.798	0.831
1024.000	1.358	1024.000	3514340093.978	1763.259	578.779	2342.038	0.247	0.311	1.888	-2.798	0.831
1025.000	1.692	1025.000	3514340095.480	1717.394	243.608	1961.002	0.124	0.311	1.888	-2.798	0.831
1026.000	1.692	1026.000	3514340096.979	1560.528	493.136	2053.665	0.240	0.311	1.042	-2.798	0.831
1027.000	2.711	1027.000	3514340098.480	1890.465	612.918	2503.383	0.245	0.311	1.042	-2.798	0.831
1036.000	0.314	1036.000	3514340111.980	1907.426	393.088	2300.514	0.171	1.020	0.591	-3.480	-0.271
1037.000	3.904	1037.000	3514340113.480	1888.955	460.872	2349.828	0.196	1.020	0.591	-3.480	-0.271
1038.000	3.904	1038.000	3514340114.981	1150.716	995.153	2145.869	0.464	1.020	0.591	-3.480	1.078
1039.000	2.754	1039.000	3514340116.481	1173.227	928.257	2101.483	0.442	1.020	0.591	-3.480	1.078
1048.000	1.736	1048.000	3514340129.979	1260.251	870.734	2130.985	0.409	0.019	-1.102	2.355	-2.459
1049.000	1.877	1049.000	3514340131.479	1919.902	434.430	2354.332	0.185	0.019	-1.102	2.355	-2.459
1050.000	1.877	1050.000	3514340132.981	1862.271	391.707	2253.978	0.174	0.019	-0.421	2.355	-2.459
1051.000	1.511	1051.000	3514340134.481	2028.682	432.950	2461.632	0.176	0.019	-0.421	2.355	-2.459
1052.000	1.511	1052.000	3514340135.981	1705.672	621.403	2327.075	0.267	0.019	-0.421	-1.249	-2.459
1053.000	2.846	1053.000	3514340137.481	2021.667	612.523	2634.190	0.233	0.019	-0.421	-1.249	-2.459
1054.000	2.846	1054.000	3514340138.981	1316.017	966.046	2282.063	0.423	0.019	-0.421	-1.249	2.548
1055.000	0.202	1055.000	3514340140.481	1284.760	615.977	1900.736	0.324	0.019	-0.421	-1.249	2.548
1056.000	0.202	1056.000	3514340141.980	1926.030	269.558	2195.587	0.123	-0.095	-0.421	-1.249	2.548
1057.000	0.235	1057.000	3514340143.480	1527.850	721.945	2249.795	0.321	-0.095	-0.421	-1.249	2.548
1058.000	0.235	1058.000	3514340144.979	1878.965	379.472	2258.438	0.168	-0.095	0.802	-1.249	2.548
1059.000	1.139	1059.000	3514340146.480	1862.049	656.233	2518.281	0.261	-0.095	0.802	-1.249	2.548
1060.000	1.139	1060.000	3514340147.980	2148.118	555.987	2704.106	0.206	-0.095	0.802	1.679	2.548
1061.000	-0.759	1061.000	3514340149.480	1641.248	729.641	2370.888	0.308	-0.095	0.802	1.679	2.548
1062.000	-0.759	1062.000	3514340150.981	1836.430	486.921	2323.351	0.210	-0.095	0.802	1.679	-1.771
1063.000	1.086	1063.000	3514340152.482	1769.564	417.459	2187.023	0.191	-0.095	0.802	1.679	-1.771
1064.000	1.086	1064.000	3514340153.981	1220.202	955.094	2175.296	0.439	-1.345	0.802	1.679	-1.771
1065.000	-0.173	1065.000	3514340155.481	1852.237	408.974	2261.210	0.181	-1.345	0.802	1.679	-1.771
1066.000	-0.173	1066.000	3514340156.981	1980.908	360.923	2341.831	0.154	-1.345	-0.484	1.679	-1.771
1067.000	-0.623	1067.000	3514340158.480	1962.615	518.592	2481.207	0.209	-1.345	-0.484	1.679	-1.771
1068.000	-0.623	1068.000	3514340159.980	1815.384	611.734	2427.118	0.252	-1.345	-0.484	-0.864	-1.771
1069.000	0.295	1069.000	3514340161.480	1432.479	911.977	2344.455	0.389	-1.345	-0.484	-0.864	-1.771
1070.000	0.295	1070.000	3514340162.980	1624.375	649.721	2274.096	0.286	-1.345	-0.484	-0.864	2.184
1071.000	-2.089	1071.000	3514340164.481	1122.699	848.435	1971.135	0.430	-1.345	-0.484	-0.864	2.184
1072.000	-2.089	1072.000	3514340165.980	1906.849	480.112	2386.961	0.201	-0.235	-0.484	-0.864	2.184
1073.000	-2.213	1073.000	3514340167.481	1750.028	400.390	2150.417	0.186	-0.235	-0.484	-0.864	2.184
1074.000	-2.213	1074.000	3514340168.981	1807.748	293.336	2101.084	0.140	-0.235	0.379	-0.864	2.184
1075.000	-1.751	1075.000	3514340170.481	1946.453	496.096	2442.550	0.203	-0.235	0.379	-0.864	2.184
1076.000	-1.751	1076.000	3514340171.981	1997.469	357.568	2355.038	0.152	-0.235	0.379	-0.909	2.184
1077.000	-0.896	1077.000	3514340173.481	1624.731	750.262	2374.993	0.316	-0.235	0.379	-0.909	2.184
1078.000	-0.896	1078.000	3514340174.981	1592.852	949.668	2542.519	0.374	-0.235	0.379	-0.909	-2.018
1079.000	1.200	1079.000	3514340176.481	1798.291	392.496	2190.787	0.179	-0.235	0.379	-0.909	-2.018
1080.000	1.200	1080.000	3514340177.980	1660.029	606.505	2266.533	0.268	-0.410	0.379	-0.909	-2.018
1081.000	0.875	1081.000	3514340179.481	1641.336	603.545	2244.881	0.269	-0.410	0.379	-0.909	-2.018
1082.000	0.875	1082.000	3514340180.980	1942.635	478.830	2421.465	0.198	-0.410	-0.451	-0.909	-2.018
1083.000	0.525	1083.000	3514340182.481	1751.138	573.648	2324.786	0.247	-0.410	-0.451	-0.909	-2.018
1084.000	0.525	1084.000	3514340183.980	2032.101	432.851	2464.952	0.176	-0.410	-0.451	0.507	-2.018
1085.000	0.056	1085.000	3514340185.481	1312.465	951.345	2263.810	0.420	-0.410	-0.451	0.507	-2.018
1086.000	0.056	1086.000	3514340186.982	1915.418	434.035	2349.453	0.185	-0.410	-0.451	0.507	0.778
1087.000	-0.797	1087.000	3514340188.482	1506.094	640.939	2147.033	0.299	-0.410	-0.451	0.507	0.778
1088.000	-0.797	1088.000	3514340189.981	1858.364	486.230	2344.594	0.207	-0.626	-0.451	0.507	0.778
1089.000	-1.440	1089.000	3514340191.481	1835.986	465.806	2301.792	0.202	-0.626	-0.451	0.507	0.778
1090.000	-1.440	1090.000	3514340192.981	1691.198	537.734	2228.931	0.241	-0.626	-0.626	0.507	0.778
1091.000	-2.095	1091.000	3514340194.481	2026.063	430.483	2456.546	0.175	-0.626	-0.626	0.507	0.778
1092.000	-2.095	1092.000	3514340195.980	1986.858	498.366	2485.223	0.201	-0.626	-0.626	-2.072	0.778
1093.000	0.036	1093.000	3514340197.481	1740.881	739.705	2480.586	0.298	-0.626	-0.626	-2.072	0.778
1094.000	0.036	1094.000	3514340198.981	1380.575	887.508	2268.083	0.391	-0.626	-0.626	-2.072	-0.802
1095.000	0.845	1095.000	3514340200.481	1615.451	411.736	2027.187	0.203	-0.626	-0.626	-2.072	-0.802
1096.000	0.845	1096.000	3514340201.980	1578.111	529.643	2107.754	0.251	0.342	-0.626	-2.072	-0.802
1097.000	1.242	1097.000	3514340203.481	1776.357	535.070	2311.427	0.231	0.342	-0.626	-2.072	-0.802
1098.000	1.242	1098.000	3514340204.981	1835.720	314.550	2150.270	0.146	0.342	0.223	-2.072	-0.802
1099.000	1.504	1099.000	3514340206.482	1448.107	733.291	2181.399	0.336	0.342	0.223	-2.072	-0.802
1100.000	1.504	1100.000	3514340207.981	2263.292	357.272	2620.564	0.136	0.342	0.223	0.819	-0.802
1101.000	0.676	1101.000	3514340209.481	1844.067	580.161	2424.228	0.239	0.342	0.223	0.819	-0.802
1102.000	0.676	1102.000	3514340210.982	1555.467	917.897	2473.364	0.371	0.342	0.223	0.819	0.424
1103.000	0.195	1103.000	3514340212.481	1443.046	634.921	2077.966	0.306	0.342	0.223	0.819	0.424
1104.000	0.195	1104.000	3514340213.981	1957.554	304.979	2262.532	0.135	-0.750	0.223	0.819	0.424
1105.000	-0.528	1105.000	3514340215.481	1791.142	474.488	2265.631	0.209	-0.750	0.223	0.819	0.424
1106.000	-0.528	1106.000	3514340216.980	1860.140	493.137	2353.276	0.210	-0.750	-1.758	0.819	0.424
1107.000	-2.369	1107.000	3514340218.480	2233.943	139.515	2373.458	0.059	-0.750	-1.758	0.819	0.424
1108.000	-2.369	1108.000	3514340219.981	1676.634	696.193	2372.827	0.293	-0.750	-1.758	1.160	0.424
1109.000	-3.473	1109.000	3514340221.482	1322.233	962.396	2284.629	0.421	-0.750	-1.758	1.160	0.424
1110.000	-3.473	1110.000	3514340222.983	1669.841	643.110	2312.951	0.278	-0.750	-1.758	1.160	-1.503
1111.000	-1.845	1111.000	3514340224.483	1860.007	310.110	2170.116	0.143	-0.750	-1.758	1.160	-1.503
1112.000	-1.845	1112.000	3514340225.981	1385.326	943.057	2328.383	0.405	0.001	-1.758	1.160	-1.503
1113.000	-1.844	1113.000	3514340227.481	1946.498	380.262	2326.760	0.163	0.001	-1.758	1.160	-1.503
1114.000	-1.844	1114.000	3514340228.981	1560.306	743.553	2303.859	0.323	0.001	2.065	1.160	-1.503
1115.000	0.298	1115.000	3514340230.482	1962.615	599.993	2562.607	0.234	0.001	2.065	1.160	-1.503
1116.000	0.298	1116.000	3514340231.981	1783.106	901.518	2684.624	0.336	0.001	2.065	-1.260	-1.503
1117.000	1.535	1117.000	3514340233.481	2064.247	320.272	2384.519	0.134	0.001	2.065	-1.260	-1.503
1118.000	1.535	1118.000	3514340234.981	1164.436	1092.340	2256.776	0.484	0.001	2.065	-1.260	2.307
1119.000	-0.851	1119.000	3514340236.482	1916.439	448.539	2364.978	0.190	0.001	2.065	-1.260	2.307
1120.000	-0.851	1120.000	3514340237.981	1419.114	774.337	2193.451	0.353	1.402	2.065	-1.260	2.307
1121.000	0.563	1121.000	3514340239.481	1930.159	434.923	2365.082	0.184	1.402	2.065	-1.260	2.307
1122.000	0.563	1122.000	3514340240.981	1768.942	611.339	2380.281	0.257	1.402	0.895	-1.260	2.307
1123.000	1.539	1123.000	3514340242.482	2038.539	364.870	2403.409	0.152	1.402	0.895	-1.260	2.307
1124.000	1.539	1124.000	3514340243.983	1774.092	413.019	2187.111	0.189	1.402	0.895	3.077	2.307
1125.000	-1.626	1125.000	3514340245.482	1497.614	743.849	2241.462	0.332	1.402	0.895	3.077	2.307
1126.000	-1.626	1126.000	3514340246.982	1767.876	667.974	2435.851	0.274	1.402	0.895	3.077	1.438
1127.000	-3.203	1127.000	3514340248.483	1301.232	772.561	2073.792	0.373	1.402	0.895	3.077	1.438
1128.000	-3.203	1128.000	3514340249.982	1912.354	514.843	2427.198	0.212	0.642	0.895	3.077	1.438
1129.000	-2.494	1129.000	3514340251.481	2090.753	181.744	2272.498	0.080	0.642	0.895	3.077	1.438
1130.000	-2.494	1130.000	3514340252.981	1581.086	562.499	2143.585	0.262	0.642	0.326	3.077	1.438
1131.000	-1.998	1131.000	3514340254.483	2148.385	365.166	2513.551	0.145	0.642	0.326	3.077	1.438
1132.000	-1.998	1132.000	3514340255.983	1692.396	646.958	2339.354	0.277	0.642	0.326	-0.507	1.438
1133.000	-1.656	1133.000	3514340257.483	1867.066	492.643	2359.709	0.209	0.642	0.326	-0.507	1.438
1134.000	-1.656	1134.000	3514340258.983	1287.113	1062.444	2349.557	0.452	0.642	0.326	-0.507	-1.412
1135.000	-0.269	1135.000	3514340260.482	2232.878	211.246	2444.124	0.086	0.642	0.326	-0.507	-1.412
1136.000	-0.269	1136.000	3514340261.982	1345.366	818.441	2163.807	0.378	1.605	0.326	-0.507	-1.412
1137.000	1.471	1137.000	3514340263.482	1916.927	328.264	2245.192	0.146	1.605	0.326	-0.507	-1.412
1138.000	1.471	1138.000	3514340264.982	1756.999	713.163	2470.162	0.289	1.605	1.155	-0.507	-1.412
1139.000	2.857	1139.000	3514340266.483	1742.702	657.713	2400.414	0.274	1.605	1.155	-0.507	-1.412
1140.000	2.857	1140.000	3514340267.982	1757.354	854.849	2612.203	0.327	1.605	1.155	2.142	-1.412
1141.000	0.502	1141.000	3514340269.483	1134.776	1253.068	2387.844	0.525	1.605	1.155	2.142	-1.412
1142.000	0.502	1142.000	3514340270.982	2085.204	282.878	2368.081	0.119	1.605	1.155	2.142	2.568
1143.000	-2.298	1143.000	3514340272.483	1259.185	902.505	2161.690	0.417	1.605	1.155	2.142	2.568
1144.000	-2.298	1144.000	3514340273.982	1881.052	431.075	2312.127	0.186	1.254	1.155	2.142	2.568
1145.000	-0.843	1145.000	3514340275.483	1760.151	551.843	2311.994	0.239	1.254	1.155	2.142	2.568
1146.000	-0.843	1146.000	3514340276.982	2253.702	121.261	2374.963	0.051	1.254	0.469	2.142	2.568
1147.000	-0.152	1147.000	3514340278.482	1980.153	512.574	2492.727	0.206	1.254	0.469	2.142	2.568
1148.000	-0.152	1148.000	3514340279.983	1750.782	597.328	2348.111	0.254	1.254	0.469	-3.567	2.568
1149.000	3.345	1149.000	3514340281.483	2562.371	104.093	2666.465	0.039	1.254	0.469	-3.567	2.568
1150.000	3.345	1150.000	3514340282.983	1075.325	1317.892	2393.217	0.551	1.254	0.469	-3.567	-2.033
1151.000	5.251	1151.000	3514340284.482	1976.334	195.952	2172.287	0.090	1.254	0.469	-3.567	-2.033
1152.000	5.251	1152.000	3514340285.982	1479.676	960.620	2440.295	0.394	-1.651	0.469	-3.567	-2.033
1153.000	3.732	1153.000	3514340287.481	1817.027	422.195	2239.223	0.189	-1.651	0.469	-3.567	-2.033
1154.000	3.732	1154.000	3514340288.982	1698.790	501.819	2200.609	0.228	-1.651	0.429	-3.567	-2.033
1155.000	4.407	1155.000	3514340290.483	2096.481	495.702	2592.183	0.191	-1.651	0.429	-3.567	-2.033
1164.000	-2.433	1164.000	3514340303.983	1930.647	558.257	2488.904	0.224	0.348	0.063	-1.397	2.670
1165.000	-1.376	1165.000	3514340305.482	1763.126	611.635	2374.761	0.258	0.348	0.063	-1.397	2.670
1166.000	-1.376	1166.000	3514340306.983	1492.863	1075.862	2568.725	0.419	0.348	0.063	-1.397	-0.197
1167.000	-1.393	1167.000	3514340308.485	1790.210	465.707	2255.917	0.206	0.348	0.063	-1.397	-0.197
1168.000	-1.393	1168.000	3514340309.990	1349.939	682.873	2032.812	0.336	1.749	0.063	-1.397	-0.197
1169.000	0.592	1169.000	3514340311.483	1741.770	452.880	2194.650	0.206	1.749	0.063	-1.397	-0.197
1170.000	0.592	1170.000	3514340312.983	1941.747	336.947	2278.694	0.148	1.749	0.465	-1.397	-0.197
1171.000	1.419	1171.000	3514340314.483	1897.036	510.206	2407.242	0.212	1.749	0.465	-1.397	-0.197
1172.000	1.419	1172.000	3514340315.983	1661.050	719.379	2380.429	0.302	1.749	0.465	1.419	-0.197
1173.000	-0.269	1173.000	3514340317.483	1361.483	810.745	2172.228	0.373	1.749	0.465	1.419	-0.197
1174.000	-0.269	1174.000	3514340318.983	1791.053	605.913	2396.966	0.253	1.749	0.465	1.419	1.139
1175.000	-1.747	1175.000	3514340320.483	1591.164	606.307	2197.471	0.276	1.749	0.465	1.419	1.139
1176.000	-1.747	1176.000	3514340321.983	1296.171	912.865	2209.035	0.413	-0.515	0.465	1.419	1.139
1177.000	-1.970	1177.000	3514340323.482	1802.065	470.344	2272.409	0.207	-0.515	0.465	1.419	1.139
1178.000	-1.970	1178.000	3514340324.983	1575.003	628.803	2203.806	0.285	-0.515	0.794	1.419	1.139
1179.000	-0.835	1179.000	3514340326.484	1734.044	564.473	2298.516	0.246	-0.515	0.794	1.419	1.139
1180.000	-0.835	1180.000	3514340327.984	1884.338	432.259	2316.597	0.187	-0.515	0.794	-1.060	1.139
1181.000	-0.139	1181.000	3514340329.484	1829.149	542.865	2372.013	0.229	-0.515	0.794	-1.060	1.139
1182.000	-0.139	1182.000	3514340330.985	1336.353	958.942	2295.295	0.418	-0.515	0.794	-1.060	1.209
1183.000	-1.725	1183.000	3514340332.485	1025.774	956.870	1982.645	0.483	-0.515	0.794	-1.060	1.209
1184.000	-1.725	1184.000	3514340333.982	1573.937	534.774	2108.711	0.254	0.689	0.794	-1.060	1.209
1185.000	-0.753	1185.000	3514340335.483	1809.657	340.302	2149.959	0.158	0.689	0.794	-1.060	1.209
1186.000	-0.753	1186.000	3514340336.983	1722.278	445.579	2167.857	0.206	0.689	-0.519	-1.060	1.209
1187.000	-0.989	1187.000	3514340338.483	2122.633	190.624	2313.257	0.082	0.689	-0.519	-1.060	1.209
1188.000	-0.989	1188.000	3514340339.983	1653.680	622.686	2276.366	0.274	0.689	-0.519	1.663	1.209
1189.000	-2.903	1189.000	3514340341.483	1411.255	845.475	2256.731	0.375	0.689	-0.519	1.663	1.209
1190.000	-2.903	1190.000	3514340342.984	1583.972	777.198	2361.170	0.329	0.689	-0.519	1.663	-2.015
1191.000	-1.192	1191.000	3514340344.484	1818.626	258.704	2077.330	0.125	0.689	-0.519	1.663	-2.015
1192.000	-1.192	1192.000	3514340345.983	1248.440	899.742	2148.183	0.419	0.416	-0.519	1.663	-2.015
1193.000	-0.471	1193.000	3514340347.484	1731.646	385.688	2117.334	0.182	0.416	-0.519	1.663	-2.015
1194.000	-0.471	1194.000	3514340348.984	1520.835	846.758	2367.593	0.358	0.416	1.682	1.663	-2.015
1195.000	1.564	1195.000	3514340350.484	1883.894	593.185	2477.079	0.239	0.416	1.682	1.663	-2.015
1196.000	1.564	1196.000	3514340351.983	1611.411	676.558	2287.969	0.296	0.416	1.682	-0.400	-2.015
1197.000	1.555	1197.000	3514340353.485	1863.115	419.531	2282.646	0.184	0.416	1.682	-0.400	-2.015
1198.000	1.555	1198.000	3514340354.985	1169.231	1124.998	2294.229	0.490	0.416	1.682	-0.400	2.590
1199.000	-1.428	1199.000	3514340356.485	1753.668	394.075	2147.744	0.183	0.416	1.682	-0.400	2.590
1200.000	-1.428	1200.000	3514340357.984	1536.641	626.633	2163.274	0.290	1.544	1.682	-0.400	2.590
1201.000	0.462	1201.000	3514340359.484	1881.541	327.376	2208.917	0.148	1.544	1.682	-0.400	2.590
1202.000	0.462	1202.000	3514340360.984	1847.219	291.462	2138.681	0.136	1.544	0.495	-0.400	2.590
1203.000	1.404	1203.000	3514340362.484	1794.960	611.142	2406.102	0.254	1.544	0.495	-0.400	2.590
1204.000	1.404	1204.000	3514340363.984	1675.436	571.774	2247.209	0.254	1.544	0.495	2.698	2.590
1205.000	-1.746	1205.000	3514340365.484	1105.073	944.142	2049.215	0.461	1.544	0.495	2.698	2.590
1206.000	-1.746	1206.000	3514340366.985	1787.146	541.089	2328.235	0.232	1.544	0.495	2.698	0.934
1207.000	-3.260	1207.000	3514340368.484	1127.583	923.028	2050.611	0.450	1.544	0.495	2.698	0.934
1208.000	-3.260	1208.000	3514340369.984	1595.338	560.328	2155.666	0.260	-0.105	0.495	2.698	0.934
1209.000	-3.014	1209.000	3514340371.484	1892.818	477.251	2370.069	0.201	-0.105	0.495	2.698	0.934
1210.000	-3.014	1210.000	3514340372.983	1688.045	535.662	2223.707	0.241	-0.105	0.004	2.698	0.934
1211.000	-2.519	1211.000	3514340374.484	2073.304	396.542	2469.846	0.161	-0.105	0.004	2.698	0.934
1212.000	-2.519	1212.000	3514340375.985	1818.759	451.598	2270.357	0.199	-0.105	0.004	-2.009	0.934
1213.000	-0.937	1213.000	3514340377.485	1866.844	518.494	2385.338	0.217	-0.105	0.004	-2.009	0.934
1214.000	-0.937	1214.000	3514340378.985	1247.019	939.900	2186.919	0.430	-0.105	0.004	-2.009	-1.674
1215.000	0.336	1215.000	3514340380.486	1771.162	427.720	2198.883	0.195	-0.105	0.004	-2.009	-1.674
1216.000	0.336	1216.000	3514340381.984	1612.743	554.705	2167.447	0.256	0.348	0.004	-2.009	-1.674
1217.000	1.069	1217.000	3514340383.493	1824.708	480.014	2304.722	0.208	0.348	0.004	-2.009	-1.674
1218.000	1.069	1218.000	3514340384.985	1710.512	585.291	2295.803	0.255	0.348	0.338	-2.009	-1.674
1219.000	1.896	1219.000	3514340386.484	1873.637	583.120	2456.758	0.237	0.348	0.338	-2.009	-1.674
1220.000	1.896	1220.000	3514340387.985	1701.809	434.528	2136.337	0.203	0.348	0.338	1.869	-1.674
1221.000	-0.435	1221.000	3514340389.484	1262.870	884.844	2147.714	0.412	0.348	0.338	1.869	-1.674
1222.000	-0.435	1222.000	3514340390.985	2091.419	536.550	2627.969	0.204	0.348	0.338	1.869	0.540
1223.000	-1.508	1223.000	3514340392.484	1530.825	468.766	1999.590	0.234	0.348	0.338	1.869	0.540
1224.000	-1.508	1224.000	3514340393.984	1585.037	686.129	2271.166	0.302	0.411	0.338	1.869	0.540
1225.000	-0.612	1225.000	3514340395.496	1688.489	614.891	2303.380	0.267	0.411	0.338	1.869	0.540
1226.000	-0.612	1226.000	3514340396.985	1779.642	439.856	2219.499	0.198	0.411	-0.299	1.869	0.540
1227.000	-0.392	1227.000	3514340398.485	1971.939	223.086	2195.024	0.102	0.411	-0.299	1.869	0.540
1228.000	-0.392	1228.000	3514340399.986	1689.510	634.625	2324.135	0.273	0.411	-0.299	-1.829	0.540
1229.000	1.011	1229.000	3514340401.485	2149.895	309.419	2459.313	0.126	0.411	-0.299	-1.829	0.540
1230.000	1.011	1230.000	3514340402.986	1084.959	1149.271	2234.230	0.514	0.411	-0.299	-1.829	0.596
1231.000	-0.068	1231.000	3514340404.486	1669.309	574.833	2244.141	0.256	0.411	-0.299	-1.829	0.596
1232.000	-0.068	1232.000	3514340405.984	1272.327	589.830	1862.157	0.317	-0.605	-0.299	-1.829	0.596
1233.000	-0.186	1233.000	3514340407.499	1777.334	214.896	1992.230	0.108	-0.605	-0.299	-1.829	0.596
1234.000	-0.186	1234.000	3514340408.984	1527.539	619.726	2147.265	0.289	-0.605	1.509	-1.829	0.596
1235.000	1.922	1235.000	3514340410.484	1914.352	399.008	2313.361	0.172	-0.605	1.509	-1.829	0.596
1236.000	1.922	1236.000	3514340411.985	1697.370	471.134	2168.503	0.217	-0.605	1.509	3.419	0.596
1237.000	-2.164	1237.000	3514340413.485	1502.453	947.004	2449.457	0.387	-0.605	1.509	3.419	0.596
1238.000	-2.164	1238.000	3514340414.986	1856.765	578.286	2435.051	0.237	-0.605	1.509	3.419	0.533
1239.000	-3.322	1239.000	3514340416.485	1712.066	514.350	2226.415	0.231	-0.605	1.509	3.419	0.533
1240.000	-3.322	1240.000	3514340417.985	1321.656	846.758	2168.414	0.390	1.591	1.509	3.419	0.533
1241.000	-1.126	1241.000	3514340419.485	1745.588	402.955	2148.543	0.188	1.591	1.509	3.419	0.533
1242.000	-1.126	1242.000	3514340420.985	1666.511	564.670	2231.181	0.253	1.591	0.394	3.419	0.533
1243.000	-0.064	1243.000	3514340422.485	2019.625	415.584	2435.209	0.171	1.591	0.394	3.419	0.533
1244.000	-0.064	1244.000	3514340423.985	1646.131	539.017	2185.148	0.247	1.591	0.394	-1.312	0.533
1245.000	0.642	1245.000	3514340425.485	2047.641	286.430	2334.071	0.123	1.591	0.394	-1.312	0.533
1246.000	0.642	1246.000	3514340426.985	1196.226	1013.702	2209.928	0.459	1.591	0.394	-1.312	1.403
1247.000	-1.452	1247.000	3514340428.485	1676.501	696.982	2373.483	0.294	1.591	0.394	-1.312	1.403
1248.000	-1.452	1248.000	3514340429.986	1583.483	719.281	2302.764	0.312	0.577	0.394	-1.312	1.403
1249.000	-0.184	1249.000	3514340431.485	2023.044	222.592	2245.636	0.099	0.577	0.394	-1.312	1.403
1250.000	-0.184	1250.000	3514340432.985	1889.666	442.126	2331.792	0.190	0.577	0.669	-1.312	1.403
1251.000	1.246	1251.000	3514340434.485	2060.784	365.067	2425.851	0.150	0.577	0.669	-1.312	1.403
1252.000	1.246	1252.000	3514340435.985	1680.231	778.284	2458.514	0.317	0.577	0.669	2.957	1.403
1253.000	-2.601	1253.000	3514340437.485	1230.636	1162.590	2393.226	0.486	0.577	0.669	2.957	1.403
1254.000	-2.601	1254.000	3514340438.985	2179.909	548.193	2728.102	0.201	0.577	0.669	2.957	0.165
1255.000	-3.536	1255.000	3514340440.486	2066.866	309.814	2376.680	0.130	0.577	0.669	2.957	0.165
1256.000	-3.536	1256.000	3514340441.985	1650.128	567.531	2217.659	0.256	0.796	0.669	2.957	0.165
1257.000	-1.989	1257.000	3514340443.485	1985.348	351.944	2337.292	0.151	0.796	0.669	2.957	0.165
1258.000	-1.989	1258.000	3514340444.999	1651.815	706.651	2358.466	0.300	0.796	1.461	2.957	0.165
1259.000	0.334	1259.000	3514340446.485	1772.716	583.219	2355.936	0.248	0.796	1.461	2.957	0.165
1260.000	0.334	1260.000	3514340447.986	2002.264	450.118	2452.382	0.184	0.796	1.461	-2.507	0.165
1261.000	2.070	1261.000	3514340449.487	2255.522	92.648	2348.170	0.039	0.796	1.461	-2.507	0.165
1262.000	2.070	1262.000	3514340450.986	1717.971	673.697	2391.667	0.282	0.796	1.461	-2.507	1.105
1263.000	0.122	1263.000	3514340452.486	1636.364	559.638	2196.001	0.255	0.796	1.461	-2.507	1.105
1264.000	0.122	1264.000	3514340453.985	1476.701	530.136	2006.838	0.264	1.312	1.461	-2.507	1.105
1265.000	2.321	1265.000	3514340455.486	1606.616	663.633	2270.248	0.292	1.312	1.461	-2.507	1.105
1266.000	2.321	1266.000	3514340456.985	1879.320	407.395	2286.715	0.178	1.312	-0.563	-2.507	1.105
1267.000	2.721	1267.000	3514340458.485	2087.601	287.515	2375.116	0.121	1.312	-0.563	-2.507	1.105
1268.000	2.721	1268.000	3514340459.985	2004.928	662.153	2667.081	0.248	1.312	-0.563	2.132	1.105
1269.000	-0.269	1269.000	3514340461.486	1406.016	950.358	2356.375	0.403	1.312	-0.563	2.132	1.105
1270.000	-0.269	1270.000	3514340462.987	1710.201	439.166	2149.367	0.204	1.312	-0.563	2.132	0.082
1271.000	-1.312	1271.000	3514340464.488	1875.280	665.211	2540.492	0.262	1.312	-0.563	2.132	0.082
1272.000	-1.312	1272.000	3514340465.985	1575.935	619.825	2195.760	0.282	-1.005	-0.563	2.132	0.082
1273.000	-1.436	1273.000	3514340467.486	1783.372	504.089	2287.461	0.220	-1.005	-0.563	2.132	0.082
1274.000	-1.436	1274.000	3514340468.986	1940.415	270.150	2210.564	0.122	-1.005	1.119	2.132	0.082
1275.000	0.651	1275.000	3514340470.486	2004.795	590.126	2594.921	0.227	-1.005	1.119	2.132	0.082
1276.000	0.651	1276.000	3514340471.986	1888.822	391.411	2280.233	0.172	-1.005	1.119	-1.751	0.082
1277.000	1.523	1277.000	3514340473.487	1738.484	754.307	2492.791	0.303	-1.005	1.119	-1.751	0.082
1278.000	1.523	1278.000	3514340474.987	1382.484	1001.566	2384.051	0.420	-1.005	1.119	-1.751	0.180
1279.000	0.434	1279.000	3514340476.487	1733.777	647.550	2381.327	0.272	-1.005	1.119	-1.751	0.180
1280.000	0.434	1280.000	3514340477.986	1718.681	522.934	2241.615	0.233	-0.864	1.119	-1.751	0.180
1281.000	0.381	1281.000	3514340479.486	1873.504	295.507	2169.011	0.136	-0.864	1.119	-1.751	0.180
1282.000	0.381	1282.000	3514340480.985	1720.502	442.027	2162.529	0.204	-0.864	-0.491	-1.751	0.180
1283.000	0.834	1283.000	3514340482.486	2013.853	427.523	2441.376	0.175	-0.864	-0.491	-1.751	0.180
1284.000	0.834	1284.000	3514340483.986	1761.838	714.841	2476.679	0.289	-0.864	-0.491	1.034	0.180
1285.000	-1.020	1285.000	3514340485.488	1870.618	518.297	2388.915	0.217	-0.864	-0.491	1.034	0.180
1286.000	-1.020	1286.000	3514340486.988	1484.249	988.444	2472.693	0.400	-0.864	-0.491	1.034	-0.340
1287.000	-1.542	1287.000	3514340488.488	1931.890	308.334	2240.224	0.138	-0.864	-0.491	1.034	-0.340
1288.000	-1.542	1288.000	3514340489.987	1399.178	674.881	2074.059	0.325	0.600	-0.491	1.034	-0.340
1289.000	-0.093	1289.000	3514340491.486	1821.112	378.288	2199.400	0.172	0.600	-0.491	1.034	-0.340
1290.000	-0.093	1290.000	3514340492.986	1629.837	544.345	2174.181	0.250	0.600	0.999	1.034	-0.340
1291.000	1.926	1291.000	3514340494.486	1805.084	612.129	2417.212	0.253	0.600	0.999	1.034	-0.340
1292.000	1.926	1292.000	3514340495.986	1728.050	605.518	2333.568	0.259	0.600	0.999	1.609	-0.340
1293.000	-0.645	1293.000	3514340497.486	1439.094	808.081	2247.175	0.360	0.600	0.999	1.609	-0.340
1294.000	-0.645	1294.000	3514340498.986	1802.864	553.323	2356.187	0.235	0.600	0.999	1.609	1.652
1295.000	-3.349	1295.000	3514340500.487	1266.467	975.124	2241.591	0.435	0.600	0.999	1.609	1.652
1296.000	-3.349	1296.000	3514340501.987	1821.867	428.510	2250.376	0.190	0.690	0.999	1.609	1.652
1297.000	-1.816	1297.000	3514340503.486	2041.425	243.411	2284.836	0.107	0.690	0.999	1.609	1.652
1298.000	-1.816	1298.000	3514340504.986	1601.066	677.347	2278.413	0.297	0.690	0.055	1.609	1.652
1299.000	-0.754	1299.000	3514340506.487	1852.903	445.875	2298.778	0.194	0.690	0.055	1.609	1.652
1300.000	-0.754	1300.000	3514340507.987	1814.674	464.622	2279.296	0.204	0.690	0.055	-1.098	1.652
1301.000	-0.496	1301.000	3514340509.488	1775.336	744.934	2520.270	0.296	0.690	0.055	-1.098	1.652
1302.000	-0.496	1302.000	3514340510.988	1312.954	956.180	2269.133	0.421	0.690	0.055	-1.098	-2.152
1303.000	0.790	1303.000	3514340512.488	1843.667	516.816	2360.484	0.219	0.690	0.055	-1.098	-2.152
1304.000	0.790	1304.000	3514340513.986	1102.142	942.564	2044.706	0.461	1.679	0.055	-1.098	-2.152
1305.000	3.368	1305.000	3514340515.486	1434.388	612.326	2046.714	0.299	1.679	0.055	-1.098	-2.152
1306.000	3.368	1306.000	3514340516.987	1833.411	303.598	2137.009	0.142	1.679	0.087	-1.098	-2.152
1307.000	4.482	1307.000	3514340518.487	1824.664	653.667	2478.332	0.264	1.679	0.087	-1.098	-2.152
1308.000	4.482	1308.000	3514340519.988	2029.126	367.040	2396.167	0.153	1.679	0.087	1.107	-2.152
1309.000	2.270	1309.000	3514340521.494	1612.343	784.598	2396.941	0.327	1.679	0.087	1.107	-2.152
1310.000	2.270	1310.000	3514340522.988	1730.225	477.646	2207.871	0.216	1.679	0.087	1.107	2.130
1311.000	-0.967	1311.000	3514340524.487	1287.512	674.486	1961.999	0.344	1.679	0.087	1.107	2.130
1312.000	-0.967	1312.000	3514340525.986	1546.942	563.289	2110.230	0.267	-1.383	0.087	1.107	2.130
1313.000	-1.402	1313.000	3514340527.487	1775.691	312.576	2088.267	0.150	-1.383	0.087	1.107	2.130
1314.000	-1.402	1314.000	3514340528.986	1568.298	617.358	2185.656	0.282	-1.383	-0.973	1.107	2.130
1315.000	-1.378	1315.000	3514340530.486	1975.891	410.059	2385.950	0.172	-1.383	-0.973	1.107	2.130
1316.000	-1.378	1316.000	3514340531.988	1667.488	680.702	2348.190	0.290	-1.383	-0.973	-0.977	2.130
1317.000	-1.284	1317.000	3514340533.488	1948.141	432.950	2381.091	0.182	-1.383	-0.973	-0.977	2.130
1318.000	-1.284	1318.000	3514340534.989	1375.735	919.081	2294.816	0.401	-1.383	-0.973	-0.977	-0.676
1319.000	-1.596	1319.000	3514340536.488	1571.850	606.603	2178.454	0.278	-1.383	-0.973	-0.977	-0.676
1320.000	-1.596	1320.000	3514340537.987	1437.140	883.561	2320.701	0.381	1.168	-0.973	-0.977	-0.676
1321.000	0.602	1321.000	3514340539.487	1760.373	511.982	2272.354	0.225	1.168	-0.973	-0.977	-0.676
1322.000	0.602	1322.000	3514340540.987	1824.487	386.675	2211.162	0.175	1.168	1.039	-0.977	-0.676
1323.000	2.724	1323.000	3514340542.487	1908.758	331.816	2240.574	0.148	1.168	1.039	-0.977	-0.676
1324.000	2.724	1324.000	3514340543.987	1630.902	642.321	2273.223	0.283	1.168	1.039	1.924	-0.676
1325.000	-0.279	1325.000	3514340545.487	1220.024	993.081	2213.105	0.449	1.168	1.039	1.924	-0.676
1326.000	-0.279	1326.000	3514340546.987	1660.783	756.379	2417.163	0.313	1.168	1.039	1.924	0.900
1327.000	-2.259	1327.000	3514340548.487	1519.325	620.515	2139.840	0.290	1.168	1.039	1.924	0.900
1328.000	-2.259	1328.000	3514340549.987	1678.277	402.363	2080.640	0.193	-0.444	1.039	1.924	0.900
1329.000	-1.739	1329.000	3514340551.486	1774.359	419.432	2193.791	0.191	-0.444	1.039	1.924	0.900
1330.000	-1.739	1330.000	3514340552.987	1709.357	400.094	2109.451	0.190	-0.444	1.183	1.924	0.900
1331.000	0.602	1331.000	3514340554.488	1752.825	574.833	2327.657	0.247	-0.444	1.183	1.924	0.900
1332.000	0.602	1332.000	3514340555.989	1761.083	406.902	2167.985	0.188	-0.444	1.183	-1.195	0.900
1333.000	0.813	1333.000	3514340557.489	1915.418	508.035	2423.453	0.210	-0.444	1.183	-1.195	0.900
1334.000	0.813	1334.000	3514340558.989	1763.880	620.219	2384.100	0.260	-0.444	1.183	-1.195	-0.850
1335.000	0.639	1335.000	3514340560.488	1477.634	570.886	2048.520	0.279	-0.444	1.183	-1.195	-0.850
1336.000	0.639	1336.000	3514340561.987	1365.479	643.603	2009.082	0.320	-0.013	1.183	-1.195	-0.850
1337.000	1.650	1337.000	3514340563.487	1791.009	600.585	2391.594	0.251	-0.013	1.183	-1.195	-0.850
1338.000	1.650	1338.000	3514340564.987	1806.904	273.504	2080.408	0.131	-0.013	-0.522	-1.195	-0.850
1339.000	2.261	1339.000	3514340566.487	1758.331	399.206	2157.536	0.185	-0.013	-0.522	-1.195	-0.850
1340.000	2.261	1340.000	3514340567.987	2246.908	281.496	2528.405	0.111	-0.013	-0.522	0.445	-0.850
1341.000	0.721	1341.000	3514340569.489	1258.164	1086.025	2344.189	0.463	-0.013	-0.522	0.445	-0.850
1342.000	0.721	1342.000	3514340570.988	1572.738	647.550	2220.288	0.292	-0.013	-0.522	0.445	0.367
1343.000	-0.662	1343.000	3514340572.489	1514.663	730.331	2244.995	0.325	-0.013	-0.522	0.445	0.367
1344.000	-0.662	1344.000	3514340573.988	1544.899	702.902	2247.801	0.313	-1.053	-0.522	0.445	0.367
1345.000	-0.740	1345.000	3514340575.488	1953.380	252.094	2205.473	0.114	-1.053	-0.522	0.445	0.367
1346.000	-0.740	1346.000	3514340576.989	1421.689	685.438	2107.127	0.325	-1.053	-0.649	0.445	0.367
1347.000	-0.223	1347.000	3514340578.488	1827.994	427.227	2255.221	0.189	-1.053	-0.649	0.445	0.367
1348.000	-0.223	1348.000	3514340579.989	1793.495	505.371	2298.866	0.220	-1.053	-0.649	-1.510	0.367
1349.000	0.313	1349.000	3514340581.488	1823.465	451.203	2274.669	0.198	-1.053	-0.649	-1.510	0.367
1350.000	0.313	1350.000	3514340582.988	1283.028	975.716	2258.744	0.432	-1.053	-0.649	-1.510	-0.111
1351.000	-0.719	1351.000	3514340584.488	1532.867	585.587	2118.454	0.276	-1.053	-0.649	-1.510	-0.111
1352.000	-0.719	1352.000	3514340585.987	1416.894	736.942	2153.836	0.342	1.857	-0.649	-1.510	-0.111
1353.000	2.219	1353.000	3514340587.488	1692.396	462.944	2155.341	0.215	1.857	-0.649	-1.510	-0.111
1354.000	2.219	1354.000	3514340588.988	2245.310	45.288	2290.598	0.020	1.857	0.267	-1.510	-0.111
1355.000	3.625	1355.000	3514340590.488	2504.473	24.667	2529.140	0.010	1.857	0.267	-1.510	-0.111
1356.000	3.625	1356.000	3514340591.988	2372.783	-71.336	2301.447	-0.031	1.857	0.267	2.056	-0.111
1357.000	0.437	1357.000	3514340593.488	2406.660	15.885	2422.545	0.007	1.857	0.267	2.056	-0.111
1358.000	0.437	1358.000	3514340594.988	2417.582	-66.896	2350.686	-0.028	1.857	0.267	2.056	0.578
1359.000	-1.226	1359.000	3514340596.489	2198.557	23.779	2222.336	0.011	1.857	0.267	2.056	0.578
1360.000	-1.226	1360.000	3514340597.988	2185.326	6.808	2192.134	0.003	-1.716	0.267	2.056	0.578
1361.000	-1.986	1361.000	3514340599.497	2191.764	69.363	2261.126	0.031	-1.716	0.267	2.056	0.578
1388.000	-3.219	1388.000	3514340639.990	1320.324	768.318	2088.642	0.368	-1.456	-0.057	-1.369	0.459
1389.000	-2.815	1389.000	3514340641.491	2027.617	301.723	2329.340	0.130	-1.456	-0.057	-1.369	0.459
1390.000	-2.815	1390.000	3514340642.991	1743.279	503.595	2246.874	0.224	-1.456	-0.057	-1.369	0.050
1391.000	-4.072	1391.000	3514340644.490	1749.451	312.675	2062.125	0.152	-1.456	-0.057	-1.369	0.050
1392.000	-4.072	1392.000	3514340645.989	2134.577	176.120	2310.697	0.076	3.906	-0.057	-1.369	0.050
1393.000	0.960	1393.000	3514340647.489	1258.031	729.246	1987.277	0.367	3.906	-0.057	-1.369	0.050
1394.000	0.960	1394.000	3514340648.989	1745.233	368.323	2113.556	0.174	3.906	1.090	-1.369	0.050
1395.000	3.291	1395.000	3514340650.490	1287.956	786.867	2074.824	0.379	3.906	1.090	-1.369	0.050
1396.000	3.291	1396.000	3514340651.990	1697.636	627.718	2325.354	0.270	3.906	1.090	0.832	0.050
1397.000	1.325	1397.000	3514340653.490	1903.785	514.350	2418.135	0.213	3.906	1.090	0.832	0.050
1398.000	1.325	1398.000	3514340654.989	2063.225	218.843	2282.068	0.096	3.906	1.090	0.832	-0.664
1399.000	0.801	1399.000	3514340656.489	1573.493	465.806	2039.299	0.228	3.906	1.090	0.832	-0.664
1400.000	0.801	1400.000	3514340657.989	1668.820	373.256	2042.076	0.183	-1.696	1.090	0.832	-0.664
1401.000	0.164	1401.000	3514340659.489	1412.543	483.171	1895.714	0.255	-1.696	1.090	0.832	-0.664
1402.000	0.164	1402.000	3514340660.990	1385.237	484.750	1869.987	0.259	-1.696	-0.962	0.832	-0.664
1403.000	0.414	1403.000	3514340662.489	1427.328	532.603	1959.932	0.272	-1.696	-0.962	0.832	-0.664
1404.000	0.414	1404.000	3514340663.990	1636.586	702.113	2338.698	0.300	-1.696	-0.962	-1.028	-0.664
1405.000	0.419	1405.000	3514340665.491	1939.483	224.960	2164.443	0.104	-1.696	-0.962	-1.028	-0.664
1406.000	0.419	1406.000	3514340666.990	1345.810	999.100	2344.909	0.426	-1.696	-0.962	-1.028	-0.402
1407.000	-0.350	1407.000	3514340668.490	1783.283	238.379	2021.662	0.118	-1.696	-0.962	-1.028	-0.402
1408.000	-0.350	1408.000	3514340669.990	1756.155	505.371	2261.526	0.223	0.038	-0.962	-1.028	-0.402
1409.000	0.807	1409.000	3514340671.489	1395.848	493.630	1889.478	0.261	0.038	-0.962	-1.028	-0.402
1410.000	0.807	1410.000	3514340672.989	1541.436	672.414	2213.850	0.304	0.038	0.251	-1.028	-0.402
1411.000	2.333	1411.000	3514340674.491	1843.179	407.395	2250.574	0.181	0.038	0.251	-1.028	-0.402
1412.000	2.333	1412.000	3514340675.990	1679.432	709.217	2388.648	0.297	0.038	0.251	2.835	-0.402
1413.000	-1.786	1413.000	3514340677.491	1247.775	930.526	2178.301	0.427	0.038	0.251	2.835	-0.402
1414.000	-1.786	1414.000	3514340678.991	2032.012	98.075	2130.087	0.046	0.038	0.251	2.835	0.929
1415.000	-3.939	1415.000	3514340680.491	1682.584	514.942	2197.526	0.234	0.038	0.251	2.835	0.929
1416.000	-3.939	1416.000	3514340681.990	1691.198	489.190	2180.387	0.224	0.374	0.251	2.835	0.929
1417.000	-2.476	1417.000	3514340683.489	1824.575	504.286	2328.861	0.217	0.374	0.251	2.835	0.929
1418.000	-2.476	1418.000	3514340684.989	1772.050	444.592	2216.643	0.201	0.374	1.020	2.835	0.929
1419.000	-0.167	1419.000	3514340686.490	1493.662	857.414	2351.076	0.365	0.374	1.020	2.835	0.929
1420.000	-0.167	1420.000	3514340687.991	1888.423	532.406	2420.828	0.220	0.374	1.020	-3.354	0.929
1421.000	2.198	1421.000	3514340689.491	1938.373	546.121	2484.493	0.220	0.374	1.020	-3.354	0.929
1422.000	2.198	1422.000	3514340690.990	1130.026	1134.471	2264.496	0.501	0.374	1.020	-3.354	-0.088
1423.000	1.106	1423.000	3514340692.491	1476.612	670.737	2147.349	0.312	0.374	1.020	-3.354	-0.088
1424.000	1.106	1424.000	3514340693.990	1883.183	443.408	2326.592	0.191	-0.141	1.020	-3.354	-0.088
1425.000	2.043	1425.000	3514340695.491	1711.755	505.864	2217.619	0.228	-0.141	1.020	-3.354	-0.088
1426.000	2.043	1426.000	3514340696.990	1588.367	715.729	2304.096	0.311	-0.141	-1.274	-3.354	-0.088
1427.000	2.010	1427.000	3514340698.490	1491.176	889.086	2380.262	0.374	-0.141	-1.274	-3.354	-0.088
1428.000	2.010	1428.000	3514340699.991	1436.652	843.996	2280.648	0.370	-0.141	-1.274	2.474	-0.088
1429.000	-1.659	1429.000	3514340701.490	1379.643	893.625	2273.268	0.393	-0.141	-1.274	2.474	-0.088
1430.000	-1.659	1430.000	3514340702.991	1782.440	679.222	2461.662	0.276	-0.141	-1.274	2.474	-1.072
1431.000	-1.730	1431.000	3514340704.490	1915.995	215.488	2131.483	0.101	-0.141	-1.274	2.474	-1.072
1432.000	-1.730	1432.000	3514340705.989	1849.928	467.878	2317.806	0.202	0.726	-1.274	2.474	-1.072
1433.000	0.090	1433.000	3514340707.489	1570.208	652.187	2222.395	0.293	0.726	-1.274	2.474	-1.072
1434.000	0.090	1434.000	3514340708.990	1815.651	565.558	2381.209	0.238	0.726	-0.030	2.474	-1.072
1435.000	1.294	1435.000	3514340710.492	1610.212	798.411	2408.624	0.331	0.726	-0.030	2.474	-1.072
1436.000	1.294	1436.000	3514340711.992	2077.611	237.787	2315.398	0.103	0.726	-0.030	-1.031	-1.072
1437.000	1.300	1437.000	3514340713.492	1959.462	530.729	2490.191	0.213	0.726	-0.030	-1.031	-1.072
1438.000	1.300	1438.000	3514340714.992	2071.351	519.776	2591.127	0.201	0.726	-0.030	-1.031	0.887
1439.000	-0.736	1439.000	3514340716.492	1798.246	651.102	2449.348	0.266	0.726	-0.030	-1.031	0.887
1440.000	-0.736	1440.000	3514340717.990	1705.406	443.704	2149.110	0.206	-0.492	-0.030	-1.031	0.887
1441.000	-0.208	1441.000	3514340719.491	1519.014	655.147	2174.162	0.301	-0.492	-0.030	-1.031	0.887
1442.000	-0.208	1442.000	3514340720.990	1660.650	565.262	2225.912	0.254	-0.492	-2.013	-1.031	0.887
1443.000	-1.137	1443.000	3514340722.491	2347.164	466.891	2814.055	0.166	-0.492	-2.013	-1.031	0.887
1444.000	-1.137	1444.000	3514340723.990	1660.650	793.873	2454.523	0.323	-0.492	-2.013	-0.110	0.887
1445.000	-2.178	1445.000	3514340725.491	2138.528	369.507	2508.035	0.147	-0.492	-2.013	-0.110	0.887
1446.000	-2.178	1446.000	3514340726.992	1804.240	739.606	2543.846	0.291	-0.492	-2.013	-0.110	-0.522
1447.000	-2.791	1447.000	3514340728.492	1824.753	572.070	2396.823	0.239	-0.492	-2.013	-0.110	-0.522
1448.000	-2.791	1448.000	3514340729.990	1698.346	561.217	2259.562	0.248	-0.417	-2.013	-0.110	-0.522
1449.000	-2.152	1449.000	3514340731.491	1829.459	363.390	2192.849	0.166	-0.417	-2.013	-0.110	-0.522
1450.000	-2.152	1450.000	3514340732.992	1715.396	628.902	2344.297	0.268	-0.417	1.386	-0.110	-0.522
1451.000	0.427	1451.000	3514340734.492	1873.770	504.483	2378.254	0.212	-0.417	1.386	-0.110	-0.522
1452.000	0.427	1452.000	3514340735.992	1892.019	723.523	2615.542	0.277	-0.417	1.386	1.262	-0.522
1453.000	-1.961	1453.000	3514340737.491	1326.496	967.921	2294.417	0.422	-0.417	1.386	1.262	-0.522
1454.000	-1.961	1454.000	3514340738.991	2190.654	264.131	2454.784	0.108	-0.417	1.386	1.262	0.085
1455.000	-3.186	1455.000	3514340740.491	1787.146	493.137	2280.282	0.216	-0.417	1.386	1.262	0.085
1456.000	-3.186	1456.000	3514340741.991	1672.417	528.163	2200.580	0.240	0.902	1.386	1.262	0.085
1457.000	-1.130	1457.000	3514340743.491	1180.864	698.758	1879.622	0.372	0.902	1.386	1.262	0.085
1458.000	-1.130	1458.000	3514340744.991	1906.182	598.019	2504.202	0.239	0.902	0.568	1.262	0.085
1459.000	0.615	1459.000	3514340746.492	2036.408	299.256	2335.664	0.128	0.902	0.568	1.262	0.085
1460.000	0.615	1460.000	3514340748.001	1485.359	904.084	2389.443	0.378	0.902	0.568	-2.765	0.085
1461.000	2.291	1461.000	3514340749.492	2074.459	485.144	2559.604	0.190	0.902	0.568	-2.765	0.085
1462.000	2.291	1462.000	3514340750.992	1499.523	829.195	2328.718	0.356	0.902	0.568	-2.765	0.209
1463.000	0.904	1463.000	3514340752.492	1813.209	552.633	2365.841	0.234	0.902	0.568	-2.765	0.209
1464.000	0.904	1464.000	3514340753.990	1906.893	514.745	2421.638	0.213	-1.170	0.568	-2.765	0.209
1465.000	0.816	1465.000	3514340755.491	1599.511	602.065	2201.576	0.273	-1.170	0.568	-2.765	0.209
1466.000	0.816	1466.000	3514340756.991	1740.127	720.761	2460.887	0.293	-1.170	2.202	-2.765	0.209
1467.000	4.340	1467.000	3514340758.491	1187.435	1178.673	2366.108	0.498	-1.170	2.202	-2.765	0.209
1468.000	4.340	1468.000	3514340759.991	2391.919	165.168	2557.087	0.065	-1.170	2.202	1.466	0.209
1469.000	1.753	1469.000	3514340761.491	1717.660	794.761	2512.421	0.316	-1.170	2.202	1.466	0.209
1470.000	1.753	1470.000	3514340762.992	2098.746	601.275	2700.021	0.223	-1.170	2.202	1.466	-0.185
1471.000	0.836	1471.000	3514340764.492	1437.185	846.067	2283.252	0.371	-1.170	2.202	1.466	-0.185
1472.000	0.836	1472.000	3514340765.991	2006.571	277.056	2283.627	0.121	0.171	2.202	1.466	-0.185
1473.000	2.074	1473.000	3514340767.492	1642.579	587.758	2230.337	0.264	0.171	2.202	1.466	-0.185
1474.000	2.074	1474.000	3514340768.992	1654.079	516.422	2170.501	0.238	0.171	-3.815	1.466	-0.185
1475.000	-0.641	1475.000	3514340770.492	1910.001	612.227	2522.229	0.243	0.171	-3.815	1.466	-0.185
1476.000	-0.641	1476.000	3514340771.991	1653.147	664.718	2317.865	0.287	0.171	-3.815	-0.824	-0.185
1477.000	-0.831	1477.000	3514340773.492	1700.167	877.345	2577.511	0.340	0.171	-3.815	-0.824	-0.185
1478.000	-0.831	1478.000	3514340774.992	1570.474	740.494	2310.968	0.320	0.171	-3.815	-0.824	-2.193
1479.000	0.259	1479.000	3514340776.492	1851.615	446.171	2297.786	0.194	0.171	-3.815	-0.824	-2.193
1480.000	0.259	1480.000	3514340777.992	1395.138	848.633	2243.771	0.378	-0.225	-3.815	-0.824	-2.193
1481.000	1.018	1481.000	3514340779.493	1726.096	711.091	2437.187	0.292	-0.225	-3.815	-0.824	-2.193
1482.000	1.018	1482.000	3514340780.992	1980.597	395.456	2376.054	0.166	-0.225	0.388	-0.824	-2.193
1483.000	2.526	1483.000	3514340782.492	1361.305	919.870	2281.176	0.403	-0.225	0.388	-0.824	-2.193
1484.000	2.526	1484.000	3514340783.992	1932.512	480.113	2412.624	0.199	-0.225	0.388	-0.176	-2.193
1485.000	1.638	1485.000	3514340785.493	1619.492	818.342	2437.834	0.336	-0.225	0.388	-0.176	-2.193
1486.000	1.638	1486.000	3514340786.993	2112.776	375.822	2488.598	0.151	-0.225	0.388	-0.176	1.620
1487.000	-1.070	1487.000	3514340788.492	1578.599	835.017	2413.616	0.346	-0.225	0.388	-0.176	1.620
1488.000	-1.070	1488.000	3514340789.992	2267.954	248.542	2516.496	0.099	-1.103	0.388	-0.176	1.620
1489.000	-1.171	1489.000	3514340791.491	1669.441	504.779	2174.221	0.232	-1.103	0.388	-0.176	1.620
1490.000	-1.171	1490.000	3514340792.991	1905.916	676.755	2582.671	0.262	-1.103	-1.797	-0.176	1.620
1491.000	-1.936	1491.000	3514340794.492	2053.857	641.433	2695.290	0.238	-1.103	-1.797	-0.176	1.620
1492.000	-1.936	1492.000	3514340795.991	1379.998	1052.182	2432.180	0.433	-1.103	-1.797	-1.625	1.620
1493.000	-1.249	1493.000	3514340797.493	2097.902	491.163	2589.065	0.190	-1.103	-1.797	-1.625	1.620
1494.000	-1.249	1494.000	3514340799.003	1805.572	807.489	2613.061	0.309	-1.103	-1.797	-1.625	-2.175
1495.000	-0.087	1495.000	3514340800.493	1910.445	359.048	2269.493	0.158	-1.103	-1.797	-1.625	-2.175
1496.000	-0.087	1496.000	3514340801.992	1602.886	683.070	2285.956	0.299	0.263	-1.797	-1.625	-2.175
1497.000	1.135	1497.000	3514340803.493	1251.637	729.641	1981.278	0.368	0.263	-1.797	-1.625	-2.175
1498.000	1.135	1498.000	3514340804.992	1871.906	539.510	2411.416	0.224	0.263	1.713	-1.625	-2.175
1499.000	4.015	1499.000	3514340806.492	1597.158	798.017	2395.175	0.333	0.263	1.713	-1.625	-2.175
1500.000	4.015	1500.000	3514340807.993	1939.438	515.337	2454.775	0.210	0.263	1.713	1.050	-2.175
1501.000	1.934	1501.000	3514340809.493	1508.003	835.707	2343.710	0.357	0.263	1.713	1.050	-2.175
1502.000	1.934	1502.000	3514340810.993	2034.010	498.859	2532.869	0.197	0.263	1.713	1.050	1.237
1503.000	-0.335	1503.000	3514340812.493	1594.139	609.169	2203.308	0.276	0.263	1.713	1.050	1.237
1504.000	-0.335	1504.000	3514340813.993	1973.182	214.896	2188.079	0.098	-1.272	1.713	1.050	1.237
1505.000	-0.692	1505.000	3514340815.493	1871.240	499.747	2370.987	0.211	-1.272	1.713	1.050	1.237
1506.000	-0.692	1506.000	3514340816.993	1546.986	451.400	1998.387	0.226	-1.272	-1.085	1.050	1.237
1507.000	-0.708	1507.000	3514340818.493	1683.605	559.145	2242.750	0.249	-1.272	-1.085	1.050	1.237
1508.000	-0.708	1508.000	3514340819.994	1737.018	734.969	2471.987	0.297	-1.272	-1.085	-1.405	1.237
1509.000	-0.175	1509.000	3514340821.503	2062.249	461.267	2523.516	0.183	-1.272	-1.085	-1.405	1.237
1510.000	-0.175	1510.000	3514340823.003	1989.566	648.043	2637.609	0.246	-1.272	-1.085	-1.405	-1.569
1511.000	0.401	1511.000	3514340824.502	1857.653	448.539	2306.192	0.194	-1.272	-1.085	-1.405	-1.569
1512.000	0.401	1512.000	3514340826.001	1943.612	233.051	2176.663	0.107	0.133	-1.085	-1.405	-1.569
1513.000	1.453	1513.000	3514340827.493	1672.461	604.433	2276.893	0.265	0.133	-1.085	-1.405	-1.569
1514.000	1.453	1514.000	3514340828.993	1569.231	667.875	2237.106	0.299	0.133	0.422	-1.405	-1.569
1515.000	2.906	1515.000	3514340830.493	1290.665	914.542	2205.207	0.415	0.133	0.422	-1.405	-1.569
1516.000	2.906	1516.000	3514340831.993	1835.365	400.587	2235.952	0.179	0.133	0.422	0.554	-1.569
1517.000	1.403	1517.000	3514340833.494	1770.008	523.230	2293.238	0.228	0.133	0.422	0.554	-1.569
1518.000	1.403	1518.000	3514340834.994	2048.218	382.926	2431.144	0.158	0.133	0.422	0.554	-0.769
1519.000	1.238	1519.000	3514340836.494	1804.551	511.291	2315.842	0.221	0.133	0.422	0.554	-0.769
1520.000	1.238	1520.000	3514340837.992	1213.942	827.025	2040.967	0.405	0.291	0.422	0.554	-0.769
1521.000	2.511	1521.000	3514340839.493	1338.750	799.694	2138.444	0.374	0.291	0.422	0.554	-0.769
1522.000	2.511	1522.000	3514340840.993	1808.503	301.624	2110.127	0.143	0.291	-2.073	0.554	-0.769
1523.000	1.384	1523.000	3514340842.493	1750.072	565.953	2316.025	0.244	0.291	-2.073	0.554	-0.769
1524.000	1.384	1524.000	3514340843.993	1628.949	753.222	2382.171	0.316	0.291	-2.073	-0.622	-0.769
1525.000	1.112	1525.000	3514340845.493	1512.488	634.131	2146.619	0.295	0.291	-2.073	-0.622	-0.769
1526.000	1.112	1526.000	3514340846.993	1518.659	943.945	2462.604	0.383	0.291	-2.073	-0.622	1.623
1527.000	-1.528	1527.000	3514340848.503	1414.319	649.819	2064.138	0.315	0.291	-2.073	-0.622	1.623
1528.000	-1.528	1528.000	3514340849.994	2031.480	321.950	2353.429	0.137	-2.033	-2.073	-0.622	1.623
1529.000	-2.774	1529.000	3514340851.494	1809.746	400.192	2209.938	0.181	-2.033	-2.073	-0.622	1.623
1530.000	-2.774	1530.000	3514340852.994	1337.107	711.289	2048.396	0.347	-2.033	0.632	-0.622	1.623
1531.000	-1.141	1531.000	3514340854.494	1411.877	690.569	2102.445	0.328	-2.033	0.632	-0.622	1.623
1532.000	-1.141	1532.000	3514340855.994	1733.955	587.166	2321.121	0.253	-2.033	0.632	0.774	1.623
1533.000	-2.912	1533.000	3514340857.493	1513.864	814.001	2327.865	0.350	-2.033	0.632	0.774	1.623
1534.000	-2.912	1534.000	3514340858.994	2163.125	346.715	2509.841	0.138	-2.033	0.632	0.774	-1.567
1535.000	-2.249	1535.000	3514340860.493	1823.687	560.822	2384.509	0.235	-2.033	0.632	0.774	-1.567
1536.000	-2.249	1536.000	3514340861.993	1743.057	621.206	2364.263	0.263	1.462	0.632	0.774	-1.567
1537.000	0.144	1537.000	3514340863.493	1378.399	813.606	2192.005	0.371	1.462	0.632	0.774	-1.567
1538.000	0.144	1538.000	3514340864.994	1736.086	508.331	2244.417	0.226	1.462	-0.664	0.774	-1.567
1539.000	0.426	1539.000	3514340866.494	1492.596	716.025	2208.621	0.324	1.462	-0.664	0.774	-1.567
1540.000	0.426	1540.000	3514340867.995	1726.274	577.891	2304.165	0.251	1.462	-0.664	-1.862	-1.567
1541.000	1.484	1541.000	3514340869.494	1698.302	481.296	2179.598	0.221	1.462	-0.664	-1.862	-1.567
1542.000	1.484	1542.000	3514340871.003	1337.951	860.966	2198.917	0.392	1.462	-0.664	-1.862	0.242
1543.000	0.358	1543.000	3514340872.494	1498.457	789.433	2287.890	0.345	1.462	-0.664	-1.862	0.242
1544.000	0.358	1544.000	3514340873.993	1759.041	457.419	2216.460	0.206	-1.273	-0.664	-1.862	0.242
1545.000	0.024	1545.000	3514340875.502	1494.106	591.705	2085.811	0.284	-1.273	-0.664	-1.862	0.242
1546.000	0.024	1546.000	3514340876.994	1768.853	485.243	2254.097	0.215	-1.273	-0.646	-1.862	0.242
1547.000	0.286	1547.000	3514340878.493	1822.267	519.086	2341.353	0.222	-1.273	-0.646	-1.862	0.242
1548.000	0.286	1548.000	3514340879.993	1917.949	477.350	2395.298	0.199	-1.273	-0.646	1.502	0.242
1549.000	-2.148	1549.000	3514340881.493	1684.405	867.281	2551.685	0.340	-1.273	-0.646	1.502	0.242
1550.000	-2.148	1550.000	3514340882.993	1993.917	238.182	2232.099	0.107	-1.273	-0.646	1.502	-1.220
1551.000	-1.737	1551.000	3514340884.502	1818.137	498.563	2316.701	0.215	-1.273	-0.646	1.502	-1.220
1552.000	-1.737	1552.000	3514340885.994	1388.123	744.342	2132.465	0.349	-0.602	-0.646	1.502	-1.220
1553.000	-1.624	1553.000	3514340887.494	1634.321	536.451	2170.772	0.247	-0.602	-0.646	1.502	-1.220
1554.000	-1.624	1554.000	3514340888.994	1944.811	407.296	2352.107	0.173	-0.602	-0.197	1.502	-1.220
1555.000	-0.990	1555.000	3514340890.495	2052.658	204.240	2256.898	0.090	-0.602	-0.197	1.502	-1.220
1556.000	-0.990	1556.000	3514340891.994	1912.443	530.038	2442.481	0.217	-0.602	-0.197	-2.052	-1.220
1557.000	0.277	1557.000	3514340893.503	1234.010	1134.273	2368.284	0.479	-0.602	-0.197	-2.052	-1.220
1558.000	0.277	1558.000	3514340894.994	1618.914	851.198	2470.112	0.345	-0.602	-0.197	-2.052	1.178
1559.000	-1.783	1559.000	3514340896.494	1007.748	1122.236	2129.984	0.527	-0.602	-0.197	-2.052	1.178
1560.000	-1.783	1560.000	3514340897.994	1982.329	236.899	2219.228	0.107	-0.651	-0.197	-2.052	1.178
1561.000	-1.687	1561.000	3514340899.494	1556.355	576.017	2132.371	0.270	-0.651	-0.197	-2.052	1.178
1562.000	-1.687	1562.000	3514340900.993	1901.032	375.230	2276.262	0.165	-0.651	1.113	-2.052	1.178
1563.000	0.340	1563.000	3514340902.494	1253.324	909.116	2162.440	0.420	-0.651	1.113	-2.052	1.178
1564.000	0.340	1564.000	3514340903.994	2336.020	179.179	2515.198	0.071	-0.651	1.113	-1.182	1.178
1565.000	0.763	1565.000	3514340905.495	2129.870	222.592	2352.462	0.095	-0.651	1.113	-1.182	1.178
1566.000	0.763	1566.000	3514340906.996	1790.343	785.585	2575.928	0.305	-0.651	1.113	-1.182	-3.697
1567.000	3.758	1567.000	3514340908.496	1987.657	354.016	2341.673	0.151	-0.651	1.113	-1.182	-3.697
1568.000	3.758	1568.000	3514340909.993	1399.089	575.721	1974.810	0.292	-0.927	1.113	-1.182	-3.697
1569.000	3.515	1569.000	3514340911.494	1926.118	362.304	2288.423	0.158	-0.927	1.113	-1.182	-3.697
1570.000	3.515	1570.000	3514340912.994	1725.608	429.102	2154.709	0.199	-0.927	-3.073	-1.182	-3.697
1571.000	1.175	1571.000	3514340914.494	1670.285	454.163	2124.448	0.214	-0.927	-3.073	-1.182	-3.697
1572.000	1.175	1572.000	3514340915.994	1598.890	734.179	2333.069	0.315	-0.927	-3.073	1.851	-3.697
1573.000	-1.374	1573.000	3514340917.494	870.596	1262.737	2133.333	0.592	-0.927	-3.073	1.851	-3.697
1574.000	-1.374	1574.000	3514340918.995	2116.328	229.696	2346.024	0.098	-0.927	-3.073	1.851	1.235
1575.000	-3.302	1575.000	3514340920.495	1461.028	843.897	2304.925	0.366	-0.927	-3.073	1.851	1.235
1576.000	-3.302	1576.000	3514340921.994	1465.468	606.998	2072.466	0.293	0.359	-3.073	1.851	1.235
1577.000	-2.283	1577.000	3514340923.495	1479.054	724.510	2203.564	0.329	0.359	-3.073	1.851	1.235
1578.000	-2.283	1578.000	3514340924.995	1629.615	487.710	2117.324	0.230	0.359	0.888	1.851	1.235
1579.000	-0.696	1579.000	3514340926.495	1574.514	886.521	2461.035	0.360	0.359	0.888	1.851	1.235
1588.000	2.157	1588.000	3514340939.995	1568.521	548.094	2116.614	0.259	-0.866	-1.287	2.808	-0.645
1589.000	-1.267	1589.000	3514340941.495	1338.350	828.899	2167.250	0.382	-0.866	-1.287	2.808	-0.645
1590.000	-1.267	1590.000	3514340942.995	2074.548	470.344	2544.892	0.185	-0.866	-1.287	2.808	1.192
1591.000	-3.185	1591.000	3514340944.495	1481.674	688.891	2170.565	0.317	-0.866	-1.287	2.808	1.192
1592.000	-3.185	1592.000	3514340945.995	1895.305	398.219	2293.524	0.174	0.527	-1.287	2.808	1.192
1593.000	-2.089	1593.000	3514340947.503	1565.990	601.769	2167.758	0.278	0.527	-1.287	2.808	1.192
1594.000	-2.089	1594.000	3514340948.994	1666.511	376.512	2043.023	0.184	0.527	0.478	2.808	1.192
1595.000	-0.945	1595.000	3514340950.494	1715.484	627.817	2343.301	0.268	0.527	0.478	2.808	1.192
1596.000	-0.945	1596.000	3514340951.996	1847.175	472.219	2319.394	0.204	0.527	0.478	-1.739	1.192
1597.000	0.242	1597.000	3514340953.504	1805.972	469.358	2275.330	0.206	0.527	0.478	-1.739	1.192
1598.000	0.242	1598.000	3514340954.997	1323.698	877.838	2201.537	0.399	0.527	0.478	-1.739	-1.265
1599.000	0.910	1599.000	3514340956.497	1628.327	714.052	2342.378	0.305	0.527	0.478	-1.739	-1.265
1600.000	0.910	1600.000	3514340957.995	1679.654	537.142	2216.795	0.242	-0.821	0.478	-1.739	-1.265
1601.000	0.615	1601.000	3514340959.504	1837.407	556.283	2393.690	0.232	-0.821	0.478	-1.739	-1.265
1602.000	0.615	1602.000	3514340960.995	2056.788	352.734	2409.521	0.146	-0.821	-0.566	-1.739	-1.265
1603.000	0.759	1603.000	3514340962.495	1722.233	393.088	2115.322	0.186	-0.821	-0.566	-1.739	-1.265
1604.000	0.759	1604.000	3514340964.001	1823.021	607.294	2430.315	0.250	-0.821	-0.566	1.694	-1.265
1605.000	-1.553	1605.000	3514340965.503	1305.494	1037.086	2342.581	0.443	-0.821	-0.566	1.694	-1.265
1606.000	-1.553	1606.000	3514340967.003	1726.895	333.790	2060.685	0.162	-0.821	-0.566	1.694	-0.550
1607.000	-1.571	1607.000	3514340968.503	1748.163	437.784	2185.947	0.200	-0.821	-0.566	1.694	-0.550
1608.000	-1.571	1608.000	3514340970.003	1262.871	798.708	2061.578	0.387	-0.757	-0.566	1.694	-0.550
1609.000	-1.843	1609.000	3514340971.504	1686.980	605.321	2292.300	0.264	-0.757	-0.566	1.694	-0.550
1610.000	-1.843	1610.000	3514340972.996	1446.154	736.646	2182.800	0.337	-0.757	0.564	1.694	-0.550
1611.000	-0.629	1611.000	3514340974.495	1666.156	557.961	2224.116	0.251	-0.757	0.564	1.694	-0.550
1612.000	-0.629	1612.000	3514340975.997	1952.936	348.688	2301.624	0.151	-0.757	0.564	-2.470	-0.550
1613.000	1.436	1613.000	3514340977.497	1759.130	611.833	2370.962	0.258	-0.757	0.564	-2.470	-0.550
1614.000	1.436	1614.000	3514340979.005	1149.251	713.262	1862.513	0.383	-0.757	0.564	-2.470	1.647
1615.000	-0.829	1615.000	3514340980.502	1192.097	919.475	2111.572	0.435	-0.757	0.564	-2.470	1.647
1616.000	-0.829	1616.000	3514340982.002	1905.916	218.843	2124.759	0.103	0.646	0.564	-2.470	1.647
1617.000	0.260	1617.000	3514340983.502	1866.045	310.800	2176.845	0.143	0.646	0.564	-2.470	1.647
1618.000	0.260	1618.000	3514340985.002	1545.077	514.153	2059.230	0.250	0.646	-0.874	-2.470	1.647
1619.000	-0.064	1619.000	3514340986.495	1691.198	550.857	2242.054	0.246	0.646	-0.874	-2.470	1.647
1620.000	-0.064	1620.000	3514340988.001	1769.208	664.915	2434.124	0.273	0.646	-0.874	1.099	1.647
1621.000	-1.725	1621.000	3514340989.504	1815.873	679.715	2495.588	0.272	0.646	-0.874	1.099	1.647
1622.000	-1.725	1622.000	3514340991.004	1808.813	510.305	2319.118	0.220	0.646	-0.874	1.099	-2.926
1623.000	0.765	1623.000	3514340992.504	1962.304	289.488	2251.792	0.129	0.646	-0.874	1.099	-2.926
1624.000	0.765	1624.000	3514340994.004	1438.695	733.094	2171.789	0.338	0.941	-0.874	1.099	-2.926
1625.000	2.219	1625.000	3514340995.504	1275.746	783.019	2058.766	0.380	0.941	-0.874	1.099	-2.926
1626.000	2.219	1626.000	3514340997.003	1621.889	533.590	2155.479	0.248	0.941	0.242	1.099	-2.926
1627.000	2.882	1627.000	3514340998.503	1638.495	653.766	2292.261	0.285	0.941	0.242	1.099	-2.926
1628.000	2.882	1628.000	3514341000.003	1847.486	560.723	2408.209	0.233	0.941	0.242	-0.460	-2.926
1629.000	2.903	1629.000	3514341001.503	1935.842	379.374	2315.216	0.164	0.941	0.242	-0.460	-2.926
1630.000	2.903	1630.000	3514341003.003	1341.947	871.918	2213.865	0.394	0.941	0.242	-0.460	1.839
1631.000	0.565	1631.000	3514341004.503	1600.710	635.907	2236.618	0.284	0.941	0.242	-0.460	1.839
1632.000	0.565	1632.000	3514341006.003	1158.530	924.508	2083.038	0.444	-1.168	0.242	-0.460	1.839
1633.000	-0.186	1633.000	3514341007.505	1702.653	427.128	2129.781	0.201	-1.168	0.242	-0.460	1.839
1634.000	-0.186	1634.000	3514341009.003	1713.176	586.179	2299.355	0.255	-1.168	-0.461	-0.460	1.839
1635.000	-0.103	1635.000	3514341010.504	1636.363	436.008	2072.372	0.210	-1.168	-0.461	-0.460	1.839
1636.000	-0.103	1636.000	3514341012.004	1705.006	510.502	2215.508	0.230	-1.168	-0.461	2.024	1.839
1637.000	-2.675	1637.000	3514341013.504	1293.329	1085.236	2378.564	0.456	-1.168	-0.461	2.024	1.839
1638.000	-2.675	1638.000	3514341015.004	1703.985	372.467	2076.452	0.179	-1.168	-0.461	2.024	1.404
1639.000	-4.727	1639.000	3514341016.504	1262.737	648.438	1911.175	0.339	-1.168	-0.461	2.024	1.404
1640.000	-4.727	1640.000	3514341018.002	1745.010	452.584	2197.595	0.206	0.479	-0.461	2.024	1.404
1641.000	-3.828	1641.000	3514341019.502	1661.805	396.246	2058.050	0.193	0.479	-0.461	2.024	1.404
1642.000	-3.828	1642.000	3514341021.003	1745.588	472.318	2217.906	0.213	0.479	0.176	2.024	1.404
1643.000	-3.146	1643.000	3514341022.502	1792.119	426.635	2218.754	0.192	0.479	0.176	2.024	1.404
1644.000	-3.146	1644.000	3514341024.005	1579.931	613.609	2193.540	0.280	0.479	0.176	-2.437	1.404
1645.000	-1.122	1645.000	3514341025.504	1611.633	465.904	2077.537	0.224	0.479	0.176	-2.437	1.404
1646.000	-1.122	1646.000	3514341027.005	943.012	1026.036	1969.048	0.521	0.479	0.176	-2.437	-1.173
1647.000	-0.434	1647.000	3514341028.504	1293.506	539.313	1832.819	0.294	0.479	0.176	-2.437	-1.173
1648.000	-0.434	1648.000	3514341030.003	1664.824	538.819	2203.643	0.245	0.180	0.176	-2.437	-1.173
1649.000	0.202	1649.000	3514341031.504	1500.588	490.374	1990.962	0.246	0.180	0.176	-2.437	-1.173
1650.000	0.202	1650.000	3514341033.004	1760.195	346.419	2106.615	0.164	0.180	0.770	-2.437	-1.173
1651.000	1.575	1651.000	3514341034.504	1376.357	851.198	2227.555	0.382	0.180	0.770	-2.437	-1.173
1652.000	1.575	1652.000	3514341036.003	1854.412	243.214	2097.626	0.116	0.180	0.770	2.612	-1.173
1653.000	-1.629	1653.000	3514341037.503	1069.064	1150.257	2219.322	0.518	0.180	0.770	2.612	-1.173
1654.000	-1.629	1654.000	3514341039.004	1824.575	393.187	2217.762	0.177	0.180	0.770	2.612	-0.438
1655.000	-1.734	1655.000	3514341040.505	1132.601	880.009	2012.609	0.437	0.180	0.770	2.612	-0.438
1656.000	-1.734	1656.000	3514341042.003	1882.118	394.174	2276.292	0.173	-0.720	0.770	2.612	-0.438
1657.000	-2.074	1657.000	3514341043.504	1519.680	346.616	1866.297	0.186	-0.720	0.770	2.612	-0.438
1658.000	-2.074	1658.000	3514341045.004	1765.568	504.779	2270.347	0.222	-0.720	-2.342	2.612	-0.438
1659.000	-4.037	1659.000	3514341046.504	1735.153	461.958	2197.111	0.210	-0.720	-2.342	2.612	-0.438
1660.000	-4.037	1660.000	3514341048.005	1314.153	742.270	2056.423	0.361	-0.720	-2.342	-3.001	-0.438
1661.000	-1.408	1661.000	3514341049.505	1436.075	473.305	1909.380	0.248	-0.720	-2.342	-3.001	-0.438
1662.000	-1.408	1662.000	3514341051.003	1410.101	681.886	2091.987	0.326	-0.720	-2.342	-3.001	-2.324
1663.000	0.575	1663.000	3514341052.504	1620.868	436.995	2057.863	0.212	-0.720	-2.342	-3.001	-2.324
1664.000	0.575	1664.000	3514341054.003	1228.460	584.502	1812.962	0.322	0.322	-2.342	-3.001	-2.324
1665.000	1.328	1665.000	3514341055.504	1396.293	771.673	2167.965	0.356	0.322	-2.342	-3.001	-2.324
1666.000	1.328	1666.000	3514341057.003	1822.977	434.331	2257.308	0.192	0.322	1.326	-3.001	-2.324
1667.000	3.114	1667.000	3514341058.504	1588.900	741.283	2330.184	0.318	0.322	1.326	-3.001	-2.324
1668.000	3.114	1668.000	3514341060.005	1799.667	319.582	2119.249	0.151	0.322	1.326	0.687	-2.324
1669.000	1.984	1669.000	3514341061.505	1149.117	807.489	1956.606	0.413	0.322	1.326	0.687	-2.324
1670.000	1.984	1670.000	3514341063.004	1593.740	422.886	2016.625	0.210	0.322	1.326	0.687	0.968
1671.000	0.582	1671.000	3514341064.506	1195.693	692.838	1888.531	0.367	0.322	1.326	0.687	0.968
1672.000	0.582	1672.000	3514341066.004	1604.440	467.582	2072.022	0.226	-1.439	1.326	0.687	0.968
1673.000	-0.529	1673.000	3514341067.504	1550.228	440.547	1990.775	0.221	-1.439	1.326	0.687	0.968
1674.000	-0.529	1674.000	3514341069.004	1675.436	332.112	2007.548	0.165	-1.439	-1.472	0.687	0.968
1675.000	-1.667	1675.000	3514341070.505	1758.641	445.875	2204.516	0.202	-1.439	-1.472	0.687	0.968
1676.000	-1.667	1676.000	3514341072.004	1867.333	341.683	2209.016	0.155	-1.439	-1.472	-1.786	0.968
1677.000	-0.185	1677.000	3514341073.504	1604.218	517.606	2121.824	0.244	-1.439	-1.472	-1.786	0.968
1678.000	-0.185	1678.000	3514341075.004	1242.091	752.235	1994.326	0.377	-1.439	-1.472	-1.786	-1.243
1679.000	0.676	1679.000	3514341076.505	1445.532	684.155	2129.688	0.321	-1.439	-1.472	-1.786	-1.243
1680.000	0.676	1680.000	3514341078.004	1746.609	495.603	2242.212	0.221	-0.492	-1.472	-1.786	-1.243
1681.000	0.443	1681.000	3514341079.504	1514.219	457.616	1971.836	0.232	-0.492	-1.472	-1.786	-1.243
1682.000	0.443	1682.000	3514341081.005	1770.008	382.136	2152.144	0.178	-0.492	-0.419	-1.786	-1.243
1683.000	0.407	1683.000	3514341082.504	1403.708	671.033	2074.740	0.323	-0.492	-0.419	-1.786	-1.243
1684.000	0.407	1684.000	3514341084.005	1710.512	574.241	2284.752	0.251	-0.492	-0.419	1.173	-1.243
1685.000	-1.127	1685.000	3514341085.504	1359.085	918.292	2277.377	0.403	-0.492	-0.419	1.173	-1.243
1686.000	-1.127	1686.000	3514341087.004	2171.562	115.637	2287.199	0.051	-0.492	-0.419	1.173	-0.882
1687.000	-0.474	1687.000	3514341088.504	1678.277	500.043	2178.321	0.230	-0.492	-0.419	1.173	-0.882
1688.000	-0.474	1688.000	3514341090.005	1139.749	916.219	2055.969	0.446	-0.480	-0.419	1.173	-0.882
1689.000	-0.653	1689.000	3514341091.504	1454.723	730.233	2184.956	0.334	-0.480	-0.419	1.173	-0.882
1690.000	-0.653	1690.000	3514341093.004	1762.904	399.896	2162.800	0.185	-0.480	-0.634	1.173	-0.882
1691.000	-0.996	1691.000	3514341094.505	1766.456	839.654	2606.110	0.322	-0.480	-0.634	1.173	-0.882
1692.000	-0.996	1692.000	3514341096.005	1672.283	570.886	2243.169	0.254	-0.480	-0.634	-3.103	-0.882
1693.000	1.966	1693.000	3514341097.505	1917.194	504.582	2421.776	0.208	-0.480	-0.634	-3.103	-0.882
1694.000	1.966	1694.000	3514341099.005	1201.287	1115.724	2317.011	0.482	-0.480	-0.634	-3.103	1.902
1695.000	-0.299	1695.000	3514341100.506	1276.013	992.785	2268.798	0.438	-0.480	-0.634	-3.103	1.902
1696.000	-0.299	1696.000	3514341102.004	2276.390	296.691	2573.081	0.115	-1.314	-0.634	-3.103	1.902
1697.000	-1.475	1697.000	3514341103.505	2028.904	330.830	2359.734	0.140	-1.314	-0.634	-3.103	1.902
1698.000	-1.475	1698.000	3514341105.005	1851.304	363.982	2215.286	0.164	-1.314	-0.596	-3.103	1.902
1699.000	-1.812	1699.000	3514341106.504	1939.882	539.312	2479.195	0.218	-1.314	-0.596	-3.103	1.902
1700.000	-1.812	1700.000	3514341108.002	1593.429	801.174	2394.603	0.335	-1.314	-0.596	2.404	1.902
1701.000	-4.528	1701.000	3514341109.505	1386.302	933.782	2320.085	0.402	-1.314	-0.596	2.404	1.902
1702.000	-4.528	1702.000	3514341111.005	1766.056	415.190	2181.246	0.190	-1.314	-0.596	2.404	-2.836
1703.000	-1.874	1703.000	3514341112.505	1740.837	305.275	2046.112	0.149	-1.314	-0.596	2.404	-2.836
1704.000	-1.874	1704.000	3514341114.005	1134.022	962.593	2096.615	0.459	0.212	-0.596	2.404	-2.836
1705.000	-1.490	1705.000	3514341115.504	1670.774	381.446	2052.219	0.186	0.212	-0.596	2.404	-2.836
1706.000	-1.490	1706.000	3514341117.006	1516.528	797.129	2313.657	0.345	0.212	1.030	2.404	-2.836
1707.000	-0.151	1707.000	3514341118.505	1709.047	545.331	2254.378	0.242	0.212	1.030	2.404	-2.836
1708.000	-0.151	1708.000	3514341120.005	1804.373	526.880	2331.254	0.226	0.212	1.030	-1.867	-2.836
1709.000	1.597	1709.000	3514341121.504	1984.282	484.355	2468.637	0.196	0.212	1.030	-1.867	-2.836
1710.000	1.597	1710.000	3514341123.005	1546.720	866.985	2413.705	0.359	0.212	1.030	-1.867	2.727
1711.000	-1.475	1711.000	3514341124.505	1227.173	1029.686	2256.859	0.456	0.212	1.030	-1.867	2.727
1712.000	-1.475	1712.000	3514341126.005	1970.119	426.536	2396.655	0.178	1.396	1.030	-1.867	2.727
1713.000	0.155	1713.000	3514341127.503	1276.501	936.742	2213.243	0.423	1.396	1.030	-1.867	2.727
1714.000	0.155	1714.000	3514341129.005	2181.996	265.315	2447.311	0.108	1.396	-0.140	-1.867	2.727
1715.000	0.297	1715.000	3514341130.505	1444.689	769.009	2213.698	0.347	1.396	-0.140	-1.867	2.727
1716.000	0.297	1716.000	3514341132.006	1907.071	503.990	2411.061	0.209	1.396	-0.140	1.434	2.727
1717.000	-1.390	1717.000	3514341133.505	1074.659	1161.900	2236.558	0.520	1.396	-0.140	1.434	2.727
1718.000	-1.390	1718.000	3514341135.006	2132.001	436.008	2568.010	0.170	1.396	-0.140	1.434	-2.449
1719.000	0.919	1719.000	3514341136.505	1699.367	649.129	2348.496	0.276	1.396	-0.140	1.434	-2.449
1720.000	0.919	1720.000	3514341138.004	1528.782	550.462	2079.244	0.265	-2.771	-0.140	1.434	-2.449
1721.000	-1.748	1721.000	3514341139.505	2024.109	144.744	2168.853	0.067	-2.771	-0.140	1.434	-2.449
1722.000	-1.748	1722.000	3514341141.005	1467.022	615.483	2082.505	0.296	-2.771	-1.218	1.434	-2.449
1723.000	-2.828	1723.000	3514341142.504	1349.984	794.563	2144.547	0.371	-2.771	-1.218	1.434	-2.449
1724.000	-2.828	1724.000	3514341144.005	1675.391	699.843	2375.234	0.295	-2.771	-1.218	-3.078	-2.449
1725.000	0.119	1725.000	3514341145.504	2199.134	202.070	2401.204	0.084	-2.771	-1.218	-3.078	-2.449
1726.000	0.119	1726.000	3514341147.005	1756.910	838.667	2595.577	0.323	-2.771	-1.218	-3.078	-0.103
1727.000	-0.061	1727.000	3514341148.505	1381.108	675.275	2056.383	0.328	-2.771	-1.218	-3.078	-0.103
1728.000	-0.061	1728.000	3514341150.005	1739.061	493.433	2232.493	0.221	2.014	-1.218	-3.078	-0.103
1729.000	2.171	1729.000	3514341151.504	1523.366	564.769	2088.134	0.270	2.014	-1.218	-3.078	-0.103
1730.000	2.171	1730.000	3514341153.006	2138.173	58.115	2196.288	0.026	2.014	-0.668	-3.078	-0.103
1731.000	1.722	1731.000	3514341154.506	2054.923	205.128	2260.051	0.091	2.014	-0.668	-3.078	-0.103
1732.000	1.722	1732.000	3514341156.005	1738.306	508.529	2246.835	0.226	2.014	-0.668	2.103	-0.103
1733.000	-0.493	1733.000	3514341157.505	1444.333	968.414	2412.748	0.401	2.014	-0.668	2.103	-0.103
1734.000	-0.493	1734.000	3514341159.004	2110.556	318.102	2428.658	0.131	2.014	-0.668	2.103	-0.945
1735.000	0.299	1735.000	3514341160.499	1810.500	248.542	2059.042	0.121	2.014	-0.668	2.103	-0.945
1736.000	0.299	1736.000	3514341162.005	1700.166	536.353	2236.519	0.240	-2.147	-0.668	2.103	-0.945
1737.000	-1.778	1737.000	3514341163.505	1692.574	628.113	2320.687	0.271	-2.147	-0.668	2.103	-0.945
1738.000	-1.778	1738.000	3514341165.006	1479.631	689.779	2169.411	0.318	-2.147	1.193	2.103	-0.945
1739.000	-0.376	1739.000	3514341166.506	1758.197	898.854	2657.052	0.338	-2.147	1.193	2.103	-0.945
1740.000	-0.376	1740.000	3514341168.005	1819.736	481.987	2301.723	0.209	-2.147	1.193	-2.379	-0.945
1741.000	1.822	1741.000	3514341169.505	1631.790	675.769	2307.559	0.293	-2.147	1.193	-2.379	-0.945
1742.000	1.822	1742.000	3514341171.006	1151.204	1038.073	2189.277	0.474	-2.147	1.193	-2.379	1.048
1743.000	0.563	1743.000	3514341172.505	1075.236	838.075	1913.311	0.438	-2.147	1.193	-2.379	1.048
1744.000	0.563	1744.000	3514341174.005	1753.269	366.942	2120.211	0.173	0.416	1.193	-2.379	1.048
1745.000	1.084	1745.000	3514341175.505	1443.312	511.192	1954.505	0.262	0.416	1.193	-2.379	1.048
1746.000	1.084	1746.000	3514341177.005	1518.304	637.486	2155.790	0.296	0.416	-1.134	-2.379	1.048
1747.000	0.142	1747.000	3514341178.505	1645.643	497.774	2143.417	0.232	0.416	-1.134	-2.379	1.048
1748.000	0.142	1748.000	3514341180.005	1784.349	545.824	2330.173	0.234	0.416	-1.134	1.596	1.048
1749.000	-1.553	1749.000	3514341181.505	1569.586	723.326	2292.912	0.315	0.416	-1.134	1.596	1.048
1750.000	-1.553	1750.000	3514341183.006	1662.338	554.409	2216.746	0.250	0.416	-1.134	1.596	-2.332
1751.000	0.766	1751.000	3514341184.506	1763.925	627.225	2391.150	0.262	0.416	-1.134	1.596	-2.332
1752.000	0.766	1752.000	3514341186.006	1293.639	1057.510	2351.150	0.450	0.301	-1.134	1.596	-2.332
1753.000	1.135	1753.000	3514341187.506	1919.547	424.070	2343.617	0.181	0.301	-1.134	1.596	-2.332
1754.000	1.135	1754.000	3514341189.006	1943.701	357.667	2301.367	0.155	0.301	0.018	1.596	-2.332
1755.000	1.298	1755.000	3514341190.504	1792.519	623.969	2416.487	0.258	0.301	0.018	1.596	-2.332
1756.000	1.298	1756.000	3514341192.005	1910.845	485.835	2396.680	0.203	0.301	0.018	-0.575	-2.332
1757.000	1.742	1757.000	3514341193.504	1601.598	651.891	2253.489	0.289	0.301	0.018	-0.575	-2.332
1758.000	1.742	1758.000	3514341195.006	1907.648	348.096	2255.744	0.154	0.301	0.018	-0.575	1.650
1759.000	-0.031	1759.000	3514341196.505	1519.858	688.398	2208.256	0.312	0.301	0.018	-0.575	1.650
1760.000	-0.031	1760.000	3514341198.004	1475.680	469.950	1945.630	0.242	-0.225	0.018	-0.575	1.650
1761.000	-0.182	1761.000	3514341199.506	1500.855	562.993	2063.847	0.273	-0.225	0.018	-0.575	1.650
1762.000	-0.182	1762.000	3514341201.006	1533.444	685.043	2218.488	0.309	-0.225	-0.488	-0.575	1.650
1763.000	-0.548	1763.000	3514341202.505	1748.030	405.224	2153.254	0.188	-0.225	-0.488	-0.575	1.650
1764.000	-0.548	1764.000	3514341204.006	1715.617	796.734	2512.352	0.317	-0.225	-0.488	-1.188	1.650
1765.000	0.673	1765.000	3514341205.505	1642.757	715.827	2358.584	0.303	-0.225	-0.488	-1.188	1.650
1766.000	0.673	1766.000	3514341207.006	1150.272	989.332	2139.604	0.462	-0.225	-0.488	-1.188	-0.618
1767.000	1.196	1767.000	3514341208.505	1645.199	611.339	2256.539	0.271	-0.225	-0.488	-1.188	-0.618
1768.000	1.196	1768.000	3514341210.005	1533.045	582.035	2115.080	0.275	0.317	-0.488	-1.188	-0.618
1769.000	1.617	1769.000	3514341211.504	1481.186	601.177	2082.362	0.289	0.317	-0.488	-1.188	-0.618
1770.000	1.617	1770.000	3514341213.004	1714.019	454.952	2168.971	0.210	0.317	1.135	-1.188	-0.618
1771.000	2.873	1771.000	3514341214.506	1498.368	808.278	2306.646	0.350	0.317	1.135	-1.188	-0.618
1772.000	2.873	1772.000	3514341216.005	1918.703	473.896	2392.600	0.198	0.317	1.135	1.398	-0.618
1773.000	1.348	1773.000	3514341217.506	1587.435	664.422	2251.857	0.295	0.317	1.135	1.398	-0.618
1774.000	1.348	1774.000	3514341219.006	1647.819	606.406	2254.225	0.269	0.317	1.135	1.398	0.038
1775.000	1.319	1775.000	3514341220.506	1554.046	549.179	2103.225	0.261	0.317	1.135	1.398	0.038
1776.000	1.319	1776.000	3514341222.005	1477.855	514.843	1992.699	0.258	-0.695	1.135	1.398	0.038
1777.000	0.642	1777.000	3514341223.505	1682.628	350.958	2033.586	0.173	-0.695	1.135	1.398	0.038
1778.000	0.642	1778.000	3514341225.005	1489.444	422.195	1911.639	0.221	-0.695	-1.341	1.398	0.038
1779.000	-0.626	1779.000	3514341226.506	1773.693	509.219	2282.912	0.223	-0.695	-1.341	1.398	0.038
1780.000	-0.626	1780.000	3514341228.005	1445.887	763.089	2208.976	0.345	-0.695	-1.341	-0.229	0.038
1781.000	-0.444	1781.000	3514341229.500	1880.786	510.502	2391.288	0.213	-0.695	-1.341	-0.229	0.038
1782.000	-0.444	1782.000	3514341231.006	1576.867	455.544	2032.412	0.224	-0.695	-1.341	-0.229	-0.024
1783.000	-0.525	1783.000	3514341232.505	1852.636	272.616	2125.252	0.128	-0.695	-1.341	-0.229	-0.024
1784.000	-0.525	1784.000	3514341234.006	1470.441	615.385	2085.825	0.295	0.425	-1.341	-0.229	-0.024
1785.000	-0.129	1785.000	3514341235.505	1533.311	421.899	1955.210	0.216	0.425	-1.341	-0.229	-0.024
1786.000	-0.129	1786.000	3514341237.006	1580.730	525.894	2106.624	0.250	0.425	1.077	-0.229	-0.024
1787.000	1.038	1787.000	3514341238.507	1534.821	645.675	2180.496	0.296	0.425	1.077	-0.229	-0.024
1788.000	1.038	1788.000	3514341240.007	1895.882	299.552	2195.434	0.136	0.425	1.077	0.094	-0.024
1789.000	0.896	1789.000	3514341241.507	1269.885	981.340	2251.225	0.436	0.425	1.077	0.094	-0.024
1790.000	0.896	1790.000	3514341243.006	1401.398	537.635	1939.033	0.277	0.425	1.077	0.094	1.467
1791.000	-0.642	1791.000	3514341244.506	977.867	953.812	1931.678	0.494	0.425	1.077	0.094	1.467
1792.000	-0.642	1792.000	3514341246.004	1857.387	251.107	2108.494	0.119	0.298	1.077	0.094	1.467
1793.000	-0.327	1793.000	3514341247.505	1426.174	543.753	1969.926	0.276	0.298	1.077	0.094	1.467
1794.000	-0.327	1794.000	3514341249.005	1689.288	375.427	2064.715	0.182	0.298	-1.405	0.094	1.467
1795.000	-1.705	1795.000	3514341250.505	1691.597	573.846	2265.443	0.253	0.298	-1.405	0.094	1.467
1796.000	-1.705	1796.000	3514341252.006	1609.146	695.897	2305.043	0.302	0.298	-1.405	-1.396	1.467
1797.000	-0.167	1797.000	3514341253.505	1954.667	401.574	2356.241	0.170	0.298	-1.405	-1.396	1.467
1798.000	-0.167	1798.000	3514341255.006	1287.868	777.099	2064.967	0.376	0.298	-1.405	-1.396	-3.297
1799.000	3.316	1799.000	3514341256.506	2029.260	300.144	2329.404	0.129	0.298	-1.405	-1.396	-3.297
1800.000	3.316	1800.000	3514341258.005	1384.083	650.905	2034.987	0.320	-0.829	-1.405	-1.396	-3.297
1801.000	2.419	1801.000	3514341259.507	1471.018	489.683	1960.701	0.250	-0.829	-1.405	-1.396	-3.297
1802.000	2.419	1802.000	3514341261.005	1566.744	305.374	1872.118	0.163	-0.829	0.428	-1.396	-3.297
1803.000	2.860	1803.000	3514341262.506	1689.511	698.462	2387.973	0.292	-0.829	0.428	-1.396	-3.297
1804.000	2.860	1804.000	3514341264.005	1609.413	608.971	2218.384	0.275	-0.829	0.428	1.812	-3.297
1805.000	1.012	1805.000	3514341265.506	1010.057	1039.158	2049.215	0.507	-0.829	0.428	1.812	-3.297
1806.000	1.012	1806.000	3514341267.006	1873.371	327.475	2200.846	0.149	-0.829	0.428	1.812	1.681
1807.000	-0.584	1807.000	3514341268.506	1570.074	503.891	2073.966	0.243	-0.829	0.428	1.812	1.681
1808.000	-0.584	1808.000	3514341270.005	1858.186	347.603	2205.789	0.158	-0.762	0.428	1.812	1.681
1809.000	-1.486	1809.000	3514341271.507	1425.286	419.334	1844.620	0.227	-0.762	0.428	1.812	1.681
1810.000	-1.486	1810.000	3514341273.007	1437.673	418.051	1855.724	0.225	-0.762	-0.158	1.812	1.681
1811.000	-1.702	1811.000	3514341274.506	1104.007	709.611	1813.618	0.391	-0.762	-0.158	1.812	1.681
1812.000	-1.702	1812.000	3514341276.006	1800.599	405.422	2206.021	0.184	-0.762	-0.158	-3.153	1.681
1813.000	1.722	1813.000	3514341277.506	1884.471	197.432	2081.904	0.095	-0.762	-0.158	-3.153	1.681
1814.000	1.722	1814.000	3514341279.006	1150.449	797.622	1948.072	0.409	-0.762	-0.158	-3.153	-0.751
1815.000	2.603	1815.000	3514341280.506	1277.611	727.371	2004.982	0.363	-0.762	-0.158	-3.153	-0.751
1816.000	2.603	1816.000	3514341282.005	1629.171	516.915	2146.086	0.241	-0.018	-0.158	-3.153	-0.751
1817.000	2.451	1817.000	3514341283.505	1323.388	500.043	1823.431	0.274	-0.018	-0.158	-3.153	-0.751
1818.000	2.451	1818.000	3514341285.005	1919.414	234.136	2153.550	0.109	-0.018	-1.826	-3.153	-0.751
1819.000	0.560	1819.000	3514341286.507	1870.130	274.392	2144.522	0.128	-0.018	-1.826	-3.153	-0.751
1820.000	0.560	1820.000	3514341288.008	1635.254	637.289	2272.542	0.280	-0.018	-1.826	2.769	-0.751
1821.000	-2.183	1821.000	3514341289.506	903.186	1277.044	2180.230	0.586	-0.018	-1.826	2.769	-0.751
1822.000	-2.183	1822.000	3514341291.007	2126.851	175.430	2302.281	0.076	-0.018	-1.826	2.769	-1.073
1823.000	-1.010	1823.000	3514341292.507	1892.685	222.790	2115.475	0.105	-0.018	-1.826	2.769	-1.073
1824.000	-1.010	1824.000	3514341294.005	1523.054	617.950	2141.004	0.289	-1.456	-1.826	2.769	-1.073
1825.000	-2.715	1825.000	3514341295.506	1831.191	394.766	2225.957	0.177	-1.456	-1.826	2.769	-1.073
1826.000	-2.715	1826.000	3514341297.006	1513.109	538.128	2051.238	0.262	-1.456	1.342	2.769	-1.073
1827.000	-1.460	1827.000	3514341298.505	1479.365	628.310	2107.675	0.298	-1.456	1.342	2.769	-1.073
1844.000	-2.627	1844.000	3514341324.007	1737.063	658.305	2395.368	0.275	0.311	-0.207	-3.608	-0.847
1845.000	1.231	1845.000	3514341325.507	1866.756	294.027	2160.783	0.136	0.311	-0.207	-3.608	-0.847
1846.000	1.231	1846.000	3514341327.007	1235.964	992.785	2228.749	0.445	0.311	-0.207	-3.608	-0.345
1847.000	1.670	1847.000	3514341328.507	1473.060	880.108	2353.168	0.374	0.311	-0.207	-3.608	-0.345
1848.000	1.670	1848.000	3514341330.001	1656.921	461.366	2118.286	0.218	-0.050	-0.207	-3.608	-0.345
1849.000	1.462	1849.000	3514341331.506	1597.647	465.214	2062.861	0.226	-0.050	-0.207	-3.608	-0.345
1850.000	1.462	1850.000	3514341333.003	1628.416	447.750	2076.166	0.216	-0.050	-0.021	-3.608	-0.345
1851.000	1.366	1851.000	3514341334.507	1389.455	677.347	2066.802	0.328	-0.050	-0.021	-3.608	-0.345
1852.000	1.366	1852.000	3514341336.007	1725.119	554.902	2280.021	0.243	-0.050	-0.021	2.722	-0.345
1853.000	-1.366	1853.000	3514341337.506	1143.212	821.105	1964.317	0.418	-0.050	-0.021	2.722	-0.345
1854.000	-1.366	1854.000	3514341339.007	2192.874	185.691	2378.565	0.078	-0.050	-0.021	2.722	-1.375
1855.000	0.283	1855.000	3514341340.508	1721.345	422.886	2144.231	0.197	-0.050	-0.021	2.722	-1.375
1856.000	0.283	1856.000	3514341342.008	1387.812	565.361	1953.173	0.289	-0.087	-0.021	2.722	-1.375
1857.000	0.076	1857.000	3514341343.508	1739.860	390.030	2129.890	0.183	-0.087	-0.021	2.722	-1.375
1858.000	0.076	1858.000	3514341345.007	1918.304	297.283	2215.587	0.134	-0.087	-0.742	2.722	-1.375
1859.000	-0.766	1859.000	3514341346.507	1776.135	413.216	2189.351	0.189	-0.087	-0.742	2.722	-1.375
1860.000	-0.766	1860.000	3514341348.007	1614.474	612.030	2226.504	0.275	-0.087	-0.742	-2.991	-1.375
1861.000	2.492	1861.000	3514341349.506	1905.650	419.136	2324.786	0.180	-0.087	-0.742	-2.991	-1.375
1862.000	2.492	1862.000	3514341351.007	945.898	1292.436	2238.334	0.577	-0.087	-0.742	-2.991	0.812
1863.000	1.804	1863.000	3514341352.508	1715.973	506.752	2222.725	0.228	-0.087	-0.742	-2.991	0.812
1864.000	1.804	1864.000	3514341354.007	1439.494	355.299	1794.793	0.198	-0.431	-0.742	-2.991	0.812
1865.000	1.209	1865.000	3514341355.506	1891.620	121.952	2013.572	0.061	-0.431	-0.742	-2.991	0.812
1866.000	1.209	1866.000	3514341357.008	1734.710	437.883	2172.593	0.202	-0.431	0.758	-2.991	0.812
1867.000	1.835	1867.000	3514341358.508	1661.583	456.334	2117.917	0.215	-0.431	0.758	-2.991	0.812
1868.000	1.835	1868.000	3514341360.008	1376.712	770.489	2147.201	0.359	-0.431	0.758	3.495	0.812
1869.000	-1.632	1869.000	3514341361.507	1112.399	1135.852	2248.250	0.505	-0.431	0.758	3.495	0.812
1870.000	-1.632	1870.000	3514341363.008	2021.756	196.248	2218.004	0.088	-0.431	0.758	3.495	-0.264
1871.000	-1.079	1871.000	3514341364.508	1759.485	272.123	2031.608	0.134	-0.431	0.758	3.495	-0.264
1872.000	-1.079	1872.000	3514341366.007	1227.706	711.289	1938.994	0.367	1.241	0.758	3.495	-0.264
1873.000	-0.028	1873.000	3514341367.507	1585.170	305.966	1891.136	0.162	1.241	0.758	3.495	-0.264
1874.000	-0.028	1874.000	3514341369.007	1661.006	374.638	2035.643	0.184	1.241	1.262	3.495	-0.264
1875.000	1.150	1875.000	3514341370.507	1799.356	458.307	2257.663	0.203	1.241	1.262	3.495	-0.264
1876.000	1.150	1876.000	3514341372.006	2056.255	460.675	2516.930	0.183	1.241	1.262	-3.667	-0.264
1877.000	5.107	1877.000	3514341373.508	2109.757	156.486	2266.242	0.069	1.241	1.262	-3.667	-0.264
1878.000	5.107	1878.000	3514341375.008	1250.749	1109.409	2360.158	0.470	1.241	1.262	-3.667	2.049
1879.000	3.153	1879.000	3514341376.509	-1.643	0.592	-1.051	-0.563	1.241	1.262	-3.667	2.049
1880.000	3.153	1880.000	3514341378.008	31.613	80.611	112.224	0.718	0.196	1.262	-3.667	2.049
1881.000	3.287	1881.000	3514341379.508	45.022	18.944	63.966	0.296	0.196	1.262	-3.667	2.049
1882.000	3.287	1882.000	3514341381.008	-58.919	-59.101	-118.020	0.501	0.196	-0.176	-3.667	2.049
1883.000	3.061	1883.000	3514341382.507	14.208	9.571	23.779	0.402	0.196	-0.176	-3.667	2.049
1884.000	3.061	1884.000	3514341384.007	49.240	20.424	69.664	0.293	0.196	-0.176	3.529	2.049
1885.000	-0.481	1885.000	3514341385.507	3.108	1.776	4.884	0.364	0.196	-0.176	3.529	2.049
