mesurement	 time stamp	N1S0	N3P0	 Ntot	ex.rate	time stamp 2		# AOM frequency A	# AOM frequency B	# Zeeman shift (Hz)	# fHgAOM (Hz)	# drift rate A	# drift rate B
106.000	1.220	106.000	3514344001.955	1749.273	234.926	1984.198	0.118	0.884	2.287	2.640	-0.311
107.000	3.507	107.000	3514344003.458	1569.408	434.331	2003.739	0.217	0.884	2.287	2.640	-0.311
108.000	3.507	108.000	3514344004.958	2177.023	87.517	2264.540	0.039	0.884	2.287	-2.057	-0.311
109.000	5.564	109.000	3514344006.458	1738.883	338.131	2077.014	0.163	0.884	2.287	-2.057	-0.311
110.000	5.564	110.000	3514344007.958	1119.813	947.892	2067.705	0.458	0.884	2.287	-2.057	1.580
111.000	3.984	111.000	3514344009.458	1170.962	847.350	2018.313	0.420	0.884	2.287	-2.057	1.580
112.000	3.984	112.000	3514344010.958	1740.215	341.584	2081.800	0.164	-0.491	2.287	-2.057	1.580
113.000	3.493	113.000	3514344012.458	1834.565	252.390	2086.955	0.121	-0.491	2.287	-2.057	1.580
114.000	3.493	114.000	3514344013.959	1539.483	454.064	1993.547	0.228	-0.491	-1.567	-2.057	1.580
115.000	1.848	115.000	3514344015.458	1397.181	599.401	1996.581	0.300	-0.491	-1.567	-2.057	1.580
116.000	1.848	116.000	3514344016.958	1975.491	252.982	2228.473	0.114	-0.491	-1.567	2.602	1.580
117.000	-0.884	117.000	3514344018.458	979.065	833.438	1812.503	0.460	-0.491	-1.567	2.602	1.580
118.000	-0.884	118.000	3514344019.959	1664.779	264.328	1929.108	0.137	-0.491	-1.567	2.602	-2.251
119.000	1.479	119.000	3514344021.458	1565.101	353.227	1918.328	0.184	-0.491	-1.567	2.602	-2.251
120.000	1.479	120.000	3514344022.958	1043.268	603.051	1646.319	0.366	0.940	-1.567	2.602	-2.251
121.000	2.466	121.000	3514344024.458	1375.069	485.342	1860.411	0.261	0.940	-1.567	2.602	-2.251
122.000	2.466	122.000	3514344025.958	1818.226	318.990	2137.216	0.149	0.940	-1.643	2.602	-2.251
123.000	0.659	123.000	3514344027.458	1532.911	326.094	1859.005	0.175	0.940	-1.643	2.602	-2.251
124.000	0.659	124.000	3514344028.958	1638.006	295.606	1933.612	0.153	0.940	-1.643	-2.841	-2.251
125.000	3.505	125.000	3514344030.458	1357.221	383.715	1740.936	0.220	0.940	-1.643	-2.841	-2.251
126.000	3.505	126.000	3514344031.959	1276.324	468.963	1745.287	0.269	0.940	-1.643	-2.841	1.603
127.000	1.940	127.000	3514344033.459	1296.215	455.939	1752.154	0.260	0.940	-1.643	-2.841	1.603
128.000	1.940	128.000	3514344034.959	1541.880	393.286	1935.166	0.203	-0.982	-1.643	-2.841	1.603
129.000	0.958	129.000	3514344036.458	1398.379	483.664	1882.044	0.257	-0.982	-1.643	-2.841	1.603
130.000	0.958	130.000	3514344037.958	1557.509	245.187	1802.696	0.136	-0.982	-0.198	-2.841	1.603
131.000	0.577	131.000	3514344039.458	1779.909	234.136	2014.045	0.116	-0.982	-0.198	-2.841	1.603
132.000	0.577	132.000	3514344040.958	1400.111	520.566	1920.676	0.271	-0.982	-0.198	0.425	1.603
133.000	0.136	133.000	3514344042.458	1637.918	247.950	1885.867	0.131	-0.982	-0.198	0.425	1.603
134.000	0.136	134.000	3514344043.958	1564.258	355.102	1919.359	0.185	-0.982	-0.198	0.425	-0.501
135.000	0.703	135.000	3514344045.458	1826.618	62.160	1888.778	0.033	-0.982	-0.198	0.425	-0.501
136.000	0.703	136.000	3514344046.958	1490.021	439.560	1929.581	0.228	-1.065	-0.198	0.425	-0.501
137.000	-0.415	137.000	3514344048.459	1466.001	451.302	1917.302	0.235	-1.065	-0.198	0.425	-0.501
138.000	-0.415	138.000	3514344049.959	1459.962	460.675	1920.637	0.240	-1.065	1.362	0.425	-0.501
139.000	0.824	139.000	3514344051.459	1441.314	525.302	1966.616	0.267	-1.065	1.362	0.425	-0.501
140.000	0.824	140.000	3514344052.959	1501.787	372.566	1874.353	0.199	-1.065	1.362	0.471	-0.501
141.000	0.313	141.000	3514344054.459	1484.871	345.334	1830.204	0.189	-1.065	1.362	0.471	-0.501
142.000	0.313	142.000	3514344055.959	1372.849	520.171	1893.021	0.275	-1.065	1.362	0.471	1.715
143.000	-1.420	143.000	3514344057.459	1070.663	568.617	1639.279	0.347	-1.065	1.362	0.471	1.715
144.000	-1.420	144.000	3514344058.958	1467.111	339.019	1806.130	0.188	0.039	1.362	0.471	1.715
145.000	-1.434	145.000	3514344060.458	1695.726	446.171	2141.897	0.208	0.039	1.362	0.471	1.715
146.000	-1.434	146.000	3514344061.958	1738.972	262.158	2001.130	0.131	0.039	-0.601	0.471	1.715
147.000	-2.195	147.000	3514344063.458	1909.424	116.920	2026.344	0.058	0.039	-0.601	0.471	1.715
148.000	-2.195	148.000	3514344064.958	1573.538	421.110	1994.647	0.211	0.039	-0.601	0.758	1.715
149.000	-3.033	149.000	3514344066.459	1165.057	708.329	1873.386	0.378	0.039	-0.601	0.758	1.715
150.000	-3.033	150.000	3514344067.959	1303.541	438.574	1742.115	0.252	0.039	-0.601	0.758	-1.401
151.000	-1.580	151.000	3514344069.459	1554.357	207.003	1761.360	0.118	0.039	-0.601	0.758	-1.401
152.000	-1.580	152.000	3514344070.959	1213.143	410.651	1623.794	0.253	-0.680	-0.601	0.758	-1.401
153.000	-2.351	153.000	3514344072.459	1789.055	192.400	1981.455	0.097	-0.680	-0.601	0.758	-1.401
154.000	-2.351	154.000	3514344073.959	1530.691	275.379	1806.070	0.152	-0.680	1.350	0.758	-1.401
155.000	-1.101	155.000	3514344075.459	1717.260	215.291	1932.551	0.111	-0.680	1.350	0.758	-1.401
156.000	-1.101	156.000	3514344076.958	1492.818	509.022	2001.840	0.254	-0.680	1.350	-1.112	-1.401
157.000	-0.017	157.000	3514344078.458	1418.448	366.843	1785.291	0.205	-0.680	1.350	-1.112	-1.401
158.000	-0.017	158.000	3514344079.958	1115.551	754.406	1869.957	0.403	-0.680	1.350	-1.112	1.191
159.000	-1.214	159.000	3514344081.458	1605.683	439.067	2044.750	0.215	-0.680	1.350	-1.112	1.191
160.000	-1.214	160.000	3514344082.958	1456.144	664.323	2120.467	0.313	0.487	1.350	-1.112	1.191
161.000	-0.797	161.000	3514344084.459	1581.130	76.269	1657.399	0.046	0.487	1.350	-1.112	1.191
162.000	-0.797	162.000	3514344085.959	1552.803	515.731	2068.534	0.249	0.487	1.257	-1.112	1.191
163.000	0.418	163.000	3514344087.459	1627.528	429.792	2057.320	0.209	0.487	1.257	-1.112	1.191
164.000	0.418	164.000	3514344088.960	1843.534	273.702	2117.236	0.129	0.487	1.257	1.742	1.191
165.000	-1.441	165.000	3514344090.459	995.982	670.539	1666.521	0.402	0.487	1.257	1.742	1.191
166.000	-1.441	166.000	3514344091.959	1734.532	387.267	2121.799	0.183	0.487	1.257	1.742	0.867
167.000	-2.357	167.000	3514344093.459	1195.915	680.011	1875.927	0.362	0.487	1.257	1.742	0.867
168.000	-2.357	168.000	3514344094.959	1531.002	201.379	1732.381	0.116	1.789	1.257	1.742	0.867
169.000	-0.553	169.000	3514344096.459	1612.920	444.000	2056.921	0.216	1.789	1.257	1.742	0.867
170.000	-0.553	170.000	3514344097.958	1866.622	343.952	2210.574	0.156	1.789	-0.701	1.742	0.867
171.000	-1.333	171.000	3514344099.458	1926.118	243.411	2169.529	0.112	1.789	-0.701	1.742	0.867
172.000	-1.333	172.000	3514344100.959	1562.748	608.083	2170.832	0.280	1.789	-0.701	-1.935	0.867
173.000	0.576	173.000	3514344102.460	1529.626	423.182	1952.808	0.217	1.789	-0.701	-1.935	0.867
174.000	0.576	174.000	3514344103.960	1418.803	627.225	2046.028	0.307	1.789	-0.701	-1.935	-2.167
175.000	2.799	175.000	3514344105.459	1537.351	480.704	2018.056	0.238	1.789	-0.701	-1.935	-2.167
176.000	2.799	176.000	3514344106.959	1083.450	823.966	1907.416	0.432	-0.530	-0.701	-1.935	-2.167
177.000	2.259	177.000	3514344108.459	1627.395	342.472	1969.867	0.174	-0.530	-0.701	-1.935	-2.167
178.000	2.259	178.000	3514344109.958	1738.750	164.182	1902.932	0.086	-0.530	1.478	-1.935	-2.167
179.000	3.727	179.000	3514344111.458	1887.357	151.947	2039.304	0.075	-0.530	1.478	-1.935	-2.167
180.000	3.727	180.000	3514344112.958	1939.882	329.350	2269.232	0.145	-0.530	1.478	0.791	-2.167
181.000	2.869	181.000	3514344114.458	1307.137	538.819	1845.957	0.292	-0.530	1.478	0.791	-2.167
182.000	2.869	182.000	3514344115.959	1101.254	762.398	1863.652	0.409	-0.530	1.478	0.791	1.705
183.000	1.139	183.000	3514344117.459	1758.952	375.032	2133.984	0.176	-0.530	1.478	0.791	1.705
184.000	1.139	184.000	3514344118.959	1498.413	439.363	1937.776	0.227	-0.771	1.478	0.791	1.705
185.000	0.319	185.000	3514344120.459	1930.292	109.717	2040.010	0.054	-0.771	1.478	0.791	1.705
186.000	0.319	186.000	3514344121.959	1676.235	199.702	1875.937	0.106	-0.771	0.622	0.791	1.705
187.000	0.961	187.000	3514344123.459	1965.856	131.325	2097.182	0.063	-0.771	0.622	0.791	1.705
188.000	0.961	188.000	3514344124.959	1797.624	220.027	2017.651	0.109	-0.771	0.622	1.031	1.705
189.000	-0.192	189.000	3514344126.459	1222.822	725.990	1948.812	0.373	-0.771	0.622	1.031	1.705
190.000	-0.192	190.000	3514344127.959	1736.308	350.859	2087.167	0.168	-0.771	0.622	1.031	0.449
191.000	-0.690	191.000	3514344129.459	1579.798	269.952	1849.750	0.146	-0.771	0.622	1.031	0.449
202.000	1.090	202.000	3514344145.959	1669.531	163.096	1832.627	0.089	0.693	-0.546	-1.799	0.550
203.000	0.538	203.000	3514344147.459	1856.632	267.683	2124.315	0.126	0.693	-0.546	-1.799	0.550
204.000	0.538	204.000	3514344148.959	1711.577	446.171	2157.748	0.207	0.693	-0.546	0.570	0.550
205.000	-0.099	205.000	3514344150.459	1596.981	473.009	2069.990	0.229	0.693	-0.546	0.570	0.550
206.000	-0.099	206.000	3514344151.959	1441.004	673.993	2114.996	0.319	0.693	-0.546	0.570	-0.258
207.000	0.088	207.000	3514344153.460	1429.504	338.328	1767.832	0.191	0.693	-0.546	0.570	-0.258
208.000	0.088	208.000	3514344154.960	1346.165	512.179	1858.344	0.276	-1.282	-0.546	0.570	-0.258
209.000	-1.276	209.000	3514344156.460	1442.735	209.470	1652.205	0.127	-1.282	-0.546	0.570	-0.258
210.000	-1.276	210.000	3514344157.960	1590.232	253.870	1844.101	0.138	-1.282	0.711	0.570	-0.258
211.000	-0.535	211.000	3514344159.460	1797.846	287.910	2085.756	0.138	-1.282	0.711	0.570	-0.258
212.000	-0.535	212.000	3514344160.960	14.252	14.504	28.756	0.504	-1.282	0.711	0.793	-0.258
213.000	-1.440	213.000	3514344162.459	-19.492	-64.232	-83.724	0.767	-1.282	0.711	0.793	-0.258
214.000	-1.440	214.000	3514344163.959	-47.996	-39.565	-87.562	0.452	-1.282	0.711	0.793	0.741
215.000	-2.292	215.000	3514344165.460	33.034	-50.419	-17.385	2.900	-1.282	0.711	0.793	0.741
216.000	-2.292	216.000	3514344166.959	-24.287	-82.288	-106.575	0.772	0.096	0.711	0.793	0.741
217.000	-2.278	217.000	3514344168.459	-69.353	-93.733	-163.086	0.575	0.096	0.711	0.793	0.741
274.000	-0.631	274.000	3514344253.960	1862.449	251.699	2114.148	0.119	-0.023	0.837	-0.611	-0.373
275.000	0.279	275.000	3514344255.460	2081.563	126.392	2207.955	0.057	-0.023	0.837	-0.611	-0.373
276.000	0.279	276.000	3514344256.960	1174.159	660.969	1835.128	0.360	-0.023	0.837	-1.504	-0.373
277.000	1.766	277.000	3514344258.461	1912.177	437.784	2349.961	0.186	-0.023	0.837	-1.504	-0.373
278.000	1.766	278.000	3514344259.961	1197.336	798.707	1996.043	0.400	-0.023	0.837	-1.504	3.102
279.000	-1.520	279.000	3514344261.461	1234.987	569.702	1804.689	0.316	-0.023	0.837	-1.504	3.102
280.000	-1.520	280.000	3514344262.960	24.997	-65.909	-40.912	1.611	-1.202	0.837	-1.504	3.102
281.000	-2.851	281.000	3514344264.461	4.618	49.037	53.655	0.914	-1.202	0.837	-1.504	3.102
282.000	-2.851	282.000	3514344265.961	-4.440	-14.603	-19.043	0.767	-1.202	2.666	-1.504	3.102
283.000	0.025	283.000	3514344267.460	157.221	95.312	252.533	0.377	-1.202	2.666	-1.504	3.102
284.000	0.025	284.000	3514344268.960	1691.286	351.648	2042.935	0.172	-1.202	2.666	1.882	3.102
285.000	-1.970	285.000	3514344270.460	1114.352	1007.289	2121.641	0.475	-1.202	2.666	1.882	3.102
296.000	-1.983	296.000	3514344286.960	1742.746	303.006	2045.752	0.148	0.162	-1.807	-2.183	0.004
297.000	-1.948	297.000	3514344288.460	55.766	66.107	121.873	0.542	0.162	-1.807	-2.183	0.004
298.000	-1.948	298.000	3514344289.960	11.899	36.507	48.406	0.754	0.162	1.050	-2.183	0.004
299.000	-0.709	299.000	3514344291.460	24.820	20.720	45.540	0.455	0.162	1.050	-2.183	0.004
300.000	-0.709	300.000	3514344292.960	24.953	100.837	125.790	0.802	0.162	1.050	0.367	0.004
301.000	-1.103	301.000	3514344294.462	-25.708	4.539	-21.169	-0.214	0.162	1.050	0.367	0.004
302.000	-1.103	302.000	3514344295.961	-9.058	-43.512	-52.570	0.828	0.162	1.050	0.367	-1.374
303.000	0.137	303.000	3514344297.462	-32.856	-25.061	-57.917	0.433	0.162	1.050	0.367	-1.374
324.000	1.383	324.000	3514344328.961	1890.376	355.398	2245.774	0.158	0.748	0.296	-0.313	-0.386
325.000	1.682	325.000	3514344330.461	1555.378	601.571	2156.949	0.279	0.748	0.296	-0.313	-0.386
326.000	1.682	326.000	3514344331.961	1497.791	529.150	2026.941	0.261	0.748	0.296	-0.313	-2.860
327.000	4.514	327.000	3514344333.462	1736.708	222.395	1959.103	0.114	0.748	0.296	-0.313	-2.860
328.000	4.514	328.000	3514344334.961	859.141	691.851	1550.992	0.446	-3.098	0.296	-0.313	-2.860
329.000	1.160	329.000	3514344336.461	1568.831	428.905	1997.736	0.215	-3.098	0.296	-0.313	-2.860
330.000	1.160	330.000	3514344337.960	1454.146	355.694	1809.839	0.197	-3.098	-0.114	-0.313	-2.860
331.000	1.265	331.000	3514344339.462	1304.651	696.686	2001.337	0.348	-3.098	-0.114	-0.313	-2.860
332.000	1.265	332.000	3514344340.963	1872.927	251.995	2124.922	0.119	-3.098	-0.114	-0.157	-2.860
333.000	1.545	333.000	3514344342.461	1545.610	519.678	2065.288	0.252	-3.098	-0.114	-0.157	-2.860
334.000	1.545	334.000	3514344343.961	1205.328	747.993	1953.321	0.383	-3.098	-0.114	-0.157	2.926
335.000	-1.585	335.000	3514344345.462	1147.652	742.467	1890.120	0.393	-3.098	-0.114	-0.157	2.926
336.000	-1.585	336.000	3514344346.961	1668.287	363.488	2031.776	0.179	-0.160	-0.114	-0.157	2.926
337.000	-2.021	337.000	3514344348.461	1753.535	368.619	2122.154	0.174	-0.160	-0.114	-0.157	2.926
338.000	-2.021	338.000	3514344349.961	1269.397	591.113	1860.510	0.318	-0.160	-2.020	-0.157	2.926
339.000	-3.912	339.000	3514344351.461	1594.228	251.699	1845.927	0.136	-0.160	-2.020	-0.157	2.926
340.000	-3.912	340.000	3514344352.963	1652.703	403.152	2055.855	0.196	-0.160	-2.020	1.156	2.926
341.000	-5.132	341.000	3514344354.462	1253.413	494.518	1747.931	0.283	-0.160	-2.020	1.156	2.926
342.000	-5.132	342.000	3514344355.962	1686.136	214.008	1900.144	0.113	-0.160	-2.020	1.156	-1.882
343.000	-3.286	343.000	3514344357.461	1273.837	696.587	1970.425	0.354	-0.160	-2.020	1.156	-1.882
344.000	-3.286	344.000	3514344358.960	1463.958	483.368	1947.326	0.248	1.267	-2.020	1.156	-1.882
345.000	-2.246	345.000	3514344360.461	1286.624	338.822	1625.446	0.208	1.267	-2.020	1.156	-1.882
346.000	-2.246	346.000	3514344361.961	1228.460	280.608	1509.069	0.186	1.267	0.526	1.156	-1.882
347.000	-1.559	347.000	3514344363.462	1446.110	527.966	1974.075	0.267	1.267	0.526	1.156	-1.882
348.000	-1.559	348.000	3514344364.962	1923.276	399.995	2323.271	0.172	1.267	0.526	-1.499	-1.882
349.000	-0.031	349.000	3514344366.462	727.184	1039.454	1766.638	0.588	1.267	0.526	-1.499	-1.882
350.000	-0.031	350.000	3514344367.963	1623.976	401.672	2025.648	0.198	1.267	0.526	-1.499	-0.927
351.000	0.834	351.000	3514344369.462	1116.705	596.441	1713.146	0.348	1.267	0.526	-1.499	-0.927
352.000	0.834	352.000	3514344370.961	1592.851	403.646	1996.497	0.202	-0.198	0.526	-1.499	-0.927
353.000	0.340	353.000	3514344372.462	1447.175	445.678	1892.853	0.235	-0.198	0.526	-1.499	-0.927
354.000	0.340	354.000	3514344373.961	1298.701	420.419	1719.120	0.245	-0.198	-0.838	-1.499	-0.927
355.000	-0.292	355.000	3514344375.461	1451.082	320.568	1771.651	0.181	-0.198	-0.838	-1.499	-0.927
356.000	-0.292	356.000	3514344376.962	1404.951	600.091	2005.042	0.299	-0.198	-0.838	-3.433	-0.927
357.000	3.367	357.000	3514344378.461	2056.210	182.830	2239.040	0.082	-0.198	-0.838	-3.433	-0.927
358.000	3.367	358.000	3514344379.961	686.647	1210.740	1897.387	0.638	-0.198	-0.838	-3.433	-1.285
359.000	4.708	359.000	3514344381.464	1907.292	169.904	2077.197	0.082	-0.198	-0.838	-3.433	-1.285
360.000	4.708	360.000	3514344382.961	815.584	996.337	1811.922	0.550	0.080	-0.838	-3.433	-1.285
361.000	4.529	361.000	3514344384.461	1568.787	363.686	1932.472	0.188	0.080	-0.838	-3.433	-1.285
362.000	4.529	362.000	3514344385.963	1616.872	402.856	2019.728	0.199	0.080	1.041	-3.433	-1.285
363.000	5.924	363.000	3514344387.462	1692.885	394.864	2087.749	0.189	0.080	1.041	-3.433	-1.285
374.000	-0.312	374.000	3514344403.964	1525.186	559.243	2084.429	0.268	0.099	0.092	-2.377	-1.471
375.000	1.019	375.000	3514344405.464	1115.729	641.926	1757.655	0.365	0.099	0.092	-2.377	-1.471
376.000	1.019	376.000	3514344406.961	1439.360	338.328	1777.689	0.190	0.072	0.092	-2.377	-1.471
377.000	0.870	377.000	3514344408.462	1689.732	211.838	1901.570	0.111	0.072	0.092	-2.377	-1.471
378.000	0.870	378.000	3514344409.962	1527.850	362.896	1890.746	0.192	0.072	-1.940	-2.377	-1.471
379.000	-0.811	379.000	3514344411.463	1330.758	730.035	2060.793	0.354	0.072	-1.940	-2.377	-1.471
380.000	-0.811	380.000	3514344412.962	1852.370	468.470	2320.840	0.202	0.072	-1.940	-0.823	-1.471
381.000	0.248	381.000	3514344414.462	1551.870	692.246	2244.116	0.308	0.072	-1.940	-0.823	-1.471
382.000	0.248	382.000	3514344415.963	1029.548	853.369	1882.917	0.453	0.072	-1.940	-0.823	-1.539
383.000	1.799	383.000	3514344417.464	1358.331	596.342	1954.673	0.305	0.072	-1.940	-0.823	-1.539
384.000	1.799	384.000	3514344418.962	1343.812	750.262	2094.074	0.358	0.709	-1.940	-0.823	-1.539
385.000	2.348	385.000	3514344420.463	1584.327	576.510	2160.837	0.267	0.709	-1.940	-0.823	-1.539
386.000	2.348	386.000	3514344421.963	1629.703	262.947	1892.650	0.139	0.709	-1.341	-0.823	-1.539
387.000	1.248	387.000	3514344423.462	1412.587	544.246	1956.833	0.278	0.709	-1.341	-0.823	-1.539
388.000	1.248	388.000	3514344424.962	1499.167	260.184	1759.352	0.148	0.709	-1.341	1.274	-1.539
389.000	0.068	389.000	3514344426.462	1234.232	824.854	2059.086	0.401	0.709	-1.341	1.274	-1.539
390.000	0.068	390.000	3514344427.964	1489.311	305.571	1794.882	0.170	0.709	-1.341	1.274	0.468
391.000	-0.388	391.000	3514344429.464	1234.898	830.873	2065.771	0.402	0.709	-1.341	1.274	0.468
392.000	-0.388	392.000	3514344430.961	1525.586	385.491	1911.077	0.202	-1.125	-1.341	1.274	0.468
393.000	-1.757	393.000	3514344432.462	1675.125	525.696	2200.821	0.239	-1.125	-1.341	1.274	0.468
394.000	-1.757	394.000	3514344433.963	1752.159	336.552	2088.711	0.161	-1.125	-1.146	1.274	0.468
395.000	-2.767	395.000	3514344435.464	1702.031	91.760	1793.792	0.051	-1.125	-1.146	1.274	0.468
396.000	-2.767	396.000	3514344436.963	1389.633	441.534	1831.166	0.241	-1.125	-1.146	-2.027	0.468
397.000	-0.499	397.000	3514344438.463	2098.923	168.621	2267.545	0.074	-1.125	-1.146	-2.027	0.468
398.000	-0.499	398.000	3514344439.963	1010.234	742.369	1752.603	0.424	-1.125	-1.146	-2.027	-1.764
399.000	1.397	399.000	3514344441.463	1336.441	152.440	1488.881	0.102	-1.125	-1.146	-2.027	-1.764
400.000	1.397	400.000	3514344442.962	981.996	904.577	1886.573	0.479	-0.684	-1.146	-2.027	-1.764
401.000	0.337	401.000	3514344444.462	1465.912	392.990	1858.901	0.211	-0.684	-1.146	-2.027	-1.764
402.000	0.337	402.000	3514344445.962	1540.282	402.758	1943.040	0.207	-0.684	1.672	-2.027	-1.764
403.000	2.177	403.000	3514344447.462	1611.899	342.867	1954.766	0.175	-0.684	1.672	-2.027	-1.764
404.000	2.177	404.000	3514344448.963	1837.274	213.219	2050.493	0.104	-0.684	1.672	3.073	-1.764
405.000	-0.743	405.000	3514344450.464	1508.491	785.387	2293.879	0.342	-0.684	1.672	3.073	-1.764
406.000	-0.743	406.000	3514344451.964	1479.587	419.235	1898.822	0.221	-0.684	1.672	3.073	3.318
407.000	-4.098	407.000	3514344453.464	1147.919	813.212	1961.130	0.415	-0.684	1.672	3.073	3.318
408.000	-4.098	408.000	3514344454.963	2029.348	58.016	2087.364	0.028	-0.036	1.672	3.073	3.318
409.000	-4.505	409.000	3514344456.463	1837.629	339.414	2177.042	0.156	-0.036	1.672	3.073	3.318
410.000	-4.505	410.000	3514344457.964	1615.185	534.675	2149.860	0.249	-0.036	-0.628	3.073	3.318
411.000	-4.951	411.000	3514344459.463	1283.295	688.201	1971.495	0.349	-0.036	-0.628	3.073	3.318
412.000	-4.951	412.000	3514344460.963	88.711	33.251	121.962	0.273	-0.036	-0.628	-1.070	3.318
413.000	-3.750	413.000	3514344462.464	829.748	1086.025	1915.773	0.567	-0.036	-0.628	-1.070	3.318
414.000	-3.750	414.000	3514344463.963	2309.113	184.704	2493.817	0.074	-0.036	-0.628	-1.070	-3.404
415.000	-0.173	415.000	3514344465.463	1444.822	541.286	1986.108	0.273	-0.036	-0.628	-1.070	-3.404
416.000	-0.173	416.000	3514344466.963	1317.971	814.297	2132.268	0.382	0.817	-0.628	-1.070	-3.404
417.000	0.334	417.000	3514344468.464	1856.988	396.048	2253.036	0.176	0.817	-0.628	-1.070	-3.404
418.000	0.334	418.000	3514344469.964	1964.169	235.222	2199.391	0.107	0.817	-0.673	-1.070	-3.404
419.000	-0.251	419.000	3514344471.464	1385.992	543.555	1929.547	0.282	0.817	-0.673	-1.070	-3.404
428.000	0.770	428.000	3514344484.963	1703.496	367.830	2071.326	0.178	-0.606	-1.828	2.573	0.962
429.000	-1.484	429.000	3514344486.464	1742.036	602.459	2344.495	0.257	-0.606	-1.828	2.573	0.962
430.000	-1.484	430.000	3514344487.965	1302.742	591.705	1894.446	0.312	-0.606	-1.828	2.573	-2.841
431.000	1.830	431.000	3514344489.464	1036.030	349.576	1385.607	0.252	-0.606	-1.828	2.573	-2.841
432.000	1.830	432.000	3514344490.964	1306.560	835.017	2141.577	0.390	-0.163	-1.828	2.573	-2.841
433.000	1.316	433.000	3514344492.464	1590.898	216.771	1807.669	0.120	-0.163	-1.828	2.573	-2.841
434.000	1.316	434.000	3514344493.964	1738.795	486.329	2225.123	0.219	-0.163	-0.612	2.573	-2.841
435.000	0.669	435.000	3514344495.464	1596.981	621.107	2218.088	0.280	-0.163	-0.612	2.573	-2.841
436.000	0.669	436.000	3514344496.964	2023.843	95.312	2119.155	0.045	-0.163	-0.612	0.487	-2.841
437.000	0.494	437.000	3514344498.464	1008.325	1080.302	2088.627	0.517	-0.163	-0.612	0.487	-2.841
438.000	0.494	438.000	3514344499.965	1884.027	-6.413	1877.614	-0.003	-0.163	-0.612	0.487	1.211
439.000	-0.540	439.000	3514344501.464	1090.643	656.331	1746.974	0.376	-0.163	-0.612	0.487	1.211
440.000	-0.540	440.000	3514344502.964	1798.069	130.536	1928.605	0.068	0.868	-0.612	0.487	1.211
441.000	0.003	441.000	3514344504.465	1413.919	288.206	1702.125	0.169	0.868	-0.612	0.487	1.211
442.000	0.003	442.000	3514344505.964	1692.219	103.205	1795.424	0.057	0.868	-2.068	0.487	1.211
443.000	-2.241	443.000	3514344507.464	1861.250	415.584	2276.834	0.183	0.868	-2.068	0.487	1.211
460.000	-3.310	460.000	3514344532.964	1694.616	332.704	2027.321	0.164	-1.911	0.705	-2.703	2.647
461.000	-0.085	461.000	3514344534.464	1482.340	518.790	2001.130	0.259	-1.911	0.705	-2.703	2.647
462.000	-0.085	462.000	3514344535.964	838.228	922.830	1761.058	0.524	-1.911	0.705	-2.703	-1.754
463.000	2.128	463.000	3514344537.466	1294.927	198.518	1493.445	0.133	-1.911	0.705	-2.703	-1.754
464.000	2.128	464.000	3514344538.965	1527.051	128.168	1655.219	0.077	0.831	0.705	-2.703	-1.754
465.000	2.516	465.000	3514344540.465	1625.264	772.561	2397.824	0.322	0.831	0.705	-2.703	-1.754
466.000	2.516	466.000	3514344541.965	1571.451	453.966	2025.416	0.224	0.831	-0.161	-2.703	-1.754
467.000	2.104	467.000	3514344543.465	1739.327	244.792	1984.120	0.123	0.831	-0.161	-2.703	-1.754
468.000	2.104	468.000	3514344544.966	2025.796	229.104	2254.901	0.102	0.831	-0.161	2.330	-1.754
469.000	0.102	469.000	3514344546.465	942.924	980.846	1923.770	0.510	0.831	-0.161	2.330	-1.754
470.000	0.102	470.000	3514344547.966	1866.533	83.275	1949.808	0.043	0.831	-0.161	2.330	-0.488
471.000	1.038	471.000	3514344549.465	1505.161	558.947	2064.109	0.271	0.831	-0.161	2.330	-0.488
472.000	1.038	472.000	3514344550.964	1266.467	657.811	1924.278	0.342	-0.863	-0.161	2.330	-0.488
473.000	-0.336	473.000	3514344552.464	1543.612	528.952	2072.564	0.255	-0.863	-0.161	2.330	-0.488
474.000	-0.336	474.000	3514344553.964	1823.821	239.760	2063.581	0.116	-0.863	-0.192	2.330	-0.488
475.000	-0.859	475.000	3514344555.466	1734.044	404.534	2138.577	0.189	-0.863	-0.192	2.330	-0.488
484.000	0.219	484.000	3514344568.965	2135.820	42.032	2177.852	0.019	-1.223	-1.121	0.277	0.625
485.000	0.513	485.000	3514344570.465	968.054	970.190	1938.244	0.501	-1.223	-1.121	0.277	0.625
486.000	0.513	486.000	3514344571.966	1346.698	566.249	1912.946	0.296	-1.223	-1.121	0.277	-3.361
487.000	4.357	487.000	3514344573.466	1494.594	378.190	1872.784	0.202	-1.223	-1.121	0.277	-3.361
488.000	4.357	488.000	3514344574.965	1601.510	409.763	2011.273	0.204	-0.134	-1.121	0.277	-3.361
489.000	3.716	489.000	3514344576.465	1210.034	477.646	1687.680	0.283	-0.134	-1.121	0.277	-3.361
490.000	3.716	490.000	3514344577.965	1851.526	74.888	1926.414	0.039	-0.134	-2.787	0.277	-3.361
491.000	0.334	491.000	3514344579.465	1466.844	469.753	1936.597	0.243	-0.134	-2.787	0.277	-3.361
492.000	0.334	492.000	3514344580.965	2268.531	52.885	2321.417	0.023	-0.134	-2.787	-1.800	-3.361
493.000	2.815	493.000	3514344582.467	1653.902	171.680	1825.582	0.094	-0.134	-2.787	-1.800	-3.361
494.000	2.815	494.000	3514344583.967	1276.989	466.299	1743.289	0.267	-0.134	-2.787	-1.800	0.016
495.000	3.454	495.000	3514344585.467	1117.105	387.859	1504.964	0.258	-0.134	-2.787	-1.800	0.016
496.000	3.454	496.000	3514344586.966	1520.479	170.891	1691.370	0.101	-2.148	-2.787	-1.800	0.016
497.000	0.687	497.000	3514344588.465	1461.516	112.579	1574.095	0.072	-2.148	-2.787	-1.800	0.016
498.000	0.687	498.000	3514344589.966	1797.269	252.192	2049.461	0.123	-2.148	-1.934	-1.800	0.016
499.000	-1.878	499.000	3514344591.466	2274.925	112.776	2387.701	0.047	-2.148	-1.934	-1.800	0.016
500.000	-1.878	500.000	3514344592.966	1301.054	251.896	1552.951	0.162	-2.148	-1.934	1.526	0.016
501.000	-2.714	501.000	3514344594.466	-19.181	-1.579	-20.759	0.076	-2.148	-1.934	1.526	0.016
502.000	-2.714	502.000	3514344595.966	39.427	18.648	58.075	0.321	-2.148	-1.934	1.526	-1.379
503.000	-0.663	503.000	3514344597.466	-54.745	-99.949	-154.695	0.646	-2.148	-1.934	1.526	-1.379
546.000	8.500	546.000	3514344661.967	1882.162	56.733	1938.895	0.029	-1.374	-0.964	-3.821	-2.181
547.000	6.878	547.000	3514344663.467	1310.911	419.136	1730.048	0.242	-1.374	-0.964	-3.821	-2.181
548.000	6.878	548.000	3514344664.967	2404.884	15.392	2420.276	0.006	-1.374	-0.964	0.717	-2.181
549.000	7.142	549.000	3514344666.467	1182.728	534.774	1717.502	0.311	-1.374	-0.964	0.717	-2.181
550.000	7.142	550.000	3514344667.968	1663.581	445.480	2109.062	0.211	-1.374	-0.964	0.717	0.769
551.000	7.292	551.000	3514344669.468	1149.384	560.526	1709.910	0.328	-1.374	-0.964	0.717	0.769
552.000	7.292	552.000	3514344670.967	1557.420	213.811	1771.231	0.121	-2.185	-0.964	0.717	0.769
553.000	4.222	553.000	3514344672.466	1424.931	602.953	2027.883	0.297	-2.185	-0.964	0.717	0.769
554.000	4.222	554.000	3514344673.968	1727.739	40.947	1768.686	0.023	-2.185	-2.076	0.717	0.769
555.000	1.329	555.000	3514344675.468	1427.550	420.123	1847.673	0.227	-2.185	-2.076	0.717	0.769
556.000	1.329	556.000	3514344676.968	1971.362	240.254	2211.615	0.109	-2.185	-2.076	-0.881	0.769
557.000	3.164	557.000	3514344678.469	1472.172	332.310	1804.482	0.184	-2.185	-2.076	-0.881	0.769
558.000	3.164	558.000	3514344679.969	1487.534	771.574	2259.109	0.342	-2.185	-2.076	-0.881	-1.822
559.000	5.973	559.000	3514344681.468	1428.172	603.841	2032.012	0.297	-2.185	-2.076	-0.881	-1.822
560.000	5.973	560.000	3514344682.967	1321.789	564.966	1886.755	0.299	-2.413	-2.076	-0.881	-1.822
561.000	2.518	561.000	3514344684.467	1640.493	242.523	1883.016	0.129	-2.413	-2.076	-0.881	-1.822
562.000	2.518	562.000	3514344685.967	1886.380	94.029	1980.410	0.047	-2.413	-1.045	-0.881	-1.822
563.000	0.641	563.000	3514344687.467	1426.485	527.966	1954.450	0.270	-2.413	-1.045	-0.881	-1.822
564.000	0.641	564.000	3514344688.967	1935.753	92.352	2028.105	0.046	-2.413	-1.045	1.385	-1.822
565.000	0.141	565.000	3514344690.467	854.212	864.321	1718.533	0.503	-2.413	-1.045	1.385	-1.822
566.000	0.141	566.000	3514344691.967	1510.889	382.728	1893.617	0.202	-2.413	-1.045	1.385	0.020
567.000	1.087	567.000	3514344693.468	1058.408	894.809	1953.217	0.458	-2.413	-1.045	1.385	0.020
576.000	5.615	576.000	3514344706.967	1136.242	506.654	1642.895	0.308	0.172	-1.976	-2.647	-3.493
577.000	4.709	577.000	3514344708.468	1573.049	282.582	1855.631	0.152	0.172	-1.976	-2.647	-3.493
578.000	4.709	578.000	3514344709.967	2061.672	55.253	2116.925	0.026	0.172	-1.141	-2.647	-3.493
579.000	2.591	579.000	3514344711.467	1539.616	582.134	2121.750	0.274	0.172	-1.141	-2.647	-3.493
580.000	2.591	580.000	3514344712.968	1852.858	121.261	1974.120	0.061	0.172	-1.141	-1.282	-3.493
581.000	5.000	581.000	3514344714.468	1756.599	321.555	2078.154	0.155	0.172	-1.141	-1.282	-3.493
582.000	5.000	582.000	3514344715.969	1685.603	250.022	1935.625	0.129	0.172	-1.141	-1.282	1.646
583.000	4.454	583.000	3514344717.470	1398.956	396.048	1795.005	0.221	0.172	-1.141	-1.282	1.646
592.000	4.208	592.000	3514344730.968	1524.298	353.227	1877.525	0.188	-0.676	-1.874	-0.225	-0.989
593.000	2.341	593.000	3514344732.468	1265.312	368.323	1633.635	0.225	-0.676	-1.874	-0.225	-0.989
594.000	2.341	594.000	3514344733.969	1674.858	85.445	1760.304	0.049	-0.676	0.507	-0.225	-0.989
595.000	1.626	595.000	3514344735.468	1466.622	563.190	2029.812	0.277	-0.676	0.507	-0.225	-0.989
596.000	1.626	596.000	3514344736.969	1846.154	218.448	2064.602	0.106	-0.676	0.507	-1.443	-0.989
597.000	4.484	597.000	3514344738.469	1606.527	406.014	2012.540	0.202	-0.676	0.507	-1.443	-0.989
598.000	4.484	598.000	3514344739.969	1055.789	816.468	1872.256	0.436	-0.676	0.507	-1.443	-0.266
599.000	6.027	599.000	3514344741.469	1448.107	542.371	1990.479	0.272	-0.676	0.507	-1.443	-0.266
600.000	6.027	600.000	3514344742.969	1248.440	561.808	1810.249	0.310	-1.557	0.507	-1.443	-0.266
601.000	3.207	601.000	3514344744.468	1540.682	368.619	1909.301	0.193	-1.557	0.507	-1.443	-0.266
602.000	3.207	602.000	3514344745.969	1623.177	428.510	2051.687	0.209	-1.557	-1.511	-1.443	-0.266
603.000	0.362	603.000	3514344747.469	1502.853	367.336	1870.189	0.196	-1.557	-1.511	-1.443	-0.266
604.000	0.362	604.000	3514344748.970	2010.345	206.312	2216.657	0.093	-1.557	-1.511	2.062	-0.266
605.000	-0.541	605.000	3514344750.470	947.897	915.529	1863.425	0.491	-1.557	-1.511	2.062	-0.266
606.000	-0.541	606.000	3514344751.969	1754.423	401.968	2156.392	0.186	-1.557	-1.511	2.062	0.333
607.000	0.490	607.000	3514344753.470	1381.774	504.779	1886.553	0.268	-1.557	-1.511	2.062	0.333
608.000	0.490	608.000	3514344754.968	1406.238	277.056	1683.294	0.165	0.139	-1.511	2.062	0.333
609.000	-0.644	609.000	3514344756.468	1505.739	276.760	1782.499	0.155	0.139	-1.511	2.062	0.333
610.000	-0.644	610.000	3514344757.968	1734.976	141.685	1876.662	0.075	0.139	-0.909	2.062	0.333
611.000	-2.913	611.000	3514344759.468	1698.790	396.443	2095.233	0.189	0.139	-0.909	2.062	0.333
612.000	-2.913	612.000	3514344760.970	1678.766	384.504	2063.270	0.186	0.139	-0.909	-2.683	0.333
613.000	1.231	613.000	3514344762.469	1822.888	79.723	1902.611	0.042	0.139	-0.909	-2.683	0.333
614.000	1.231	614.000	3514344763.969	1081.896	764.076	1845.971	0.414	0.139	-0.909	-2.683	-0.906
615.000	3.467	615.000	3514344765.470	1288.001	756.774	2044.775	0.370	0.139	-0.909	-2.683	-0.906
616.000	3.467	616.000	3514344766.969	1466.667	462.353	1929.019	0.240	-0.702	-0.909	-2.683	-0.906
617.000	1.414	617.000	3514344768.469	1376.401	371.086	1747.487	0.212	-0.702	-0.909	-2.683	-0.906
618.000	1.414	618.000	3514344769.969	1690.487	372.862	2063.349	0.181	-0.702	-0.025	-2.683	-0.906
619.000	-0.008	619.000	3514344771.470	1880.297	237.590	2117.887	0.112	-0.702	-0.025	-2.683	-0.906
620.000	-0.008	620.000	3514344772.970	1342.791	335.270	1678.060	0.200	-0.702	-0.025	3.274	-0.906
621.000	-1.903	621.000	3514344774.470	1216.872	683.859	1900.731	0.360	-0.702	-0.025	3.274	-0.906
622.000	-1.903	622.000	3514344775.970	1469.686	327.574	1797.259	0.182	-0.702	-0.025	3.274	-1.148
623.000	0.735	623.000	3514344777.469	1604.085	117.315	1721.400	0.068	-0.702	-0.025	3.274	-1.148
624.000	0.735	624.000	3514344778.968	1233.167	728.062	1961.229	0.371	-0.278	-0.025	3.274	-1.148
625.000	-0.998	625.000	3514344780.468	1474.792	463.536	1938.328	0.239	-0.278	-0.025	3.274	-1.148
626.000	-0.998	626.000	3514344781.968	1393.362	442.718	1836.080	0.241	-0.278	0.771	3.274	-1.148
627.000	-1.549	627.000	3514344783.470	1350.250	393.878	1744.128	0.226	-0.278	0.771	3.274	-1.148
628.000	-1.549	628.000	3514344784.970	1678.188	308.827	1987.015	0.155	-0.278	0.771	-1.562	-1.148
629.000	1.294	629.000	3514344786.470	1392.918	470.936	1863.854	0.253	-0.278	0.771	-1.562	-1.148
630.000	1.294	630.000	3514344787.970	1266.822	642.814	1909.636	0.337	-0.278	0.771	-1.562	2.667
631.000	-0.086	631.000	3514344789.470	56.432	35.323	91.755	0.385	-0.278	0.771	-1.562	2.667
632.000	-0.086	632.000	3514344790.969	-7.282	70.349	63.068	1.115	0.017	0.771	-1.562	2.667
633.000	-1.550	633.000	3514344792.470	1462.537	427.128	1889.666	0.226	0.017	0.771	-1.562	2.667
634.000	-1.550	634.000	3514344793.970	1693.729	368.027	2061.756	0.179	0.017	-0.620	-1.562	2.667
635.000	-3.612	635.000	3514344795.469	1645.821	161.222	1807.042	0.089	0.017	-0.620	-1.562	2.667
636.000	-3.612	636.000	3514344796.979	1555.866	397.824	1953.691	0.204	0.017	-0.620	0.739	2.667
637.000	-2.860	637.000	3514344798.469	-4.973	-3.651	-8.623	0.423	0.017	-0.620	0.739	2.667
652.000	-3.827	652.000	3514344820.970	1373.382	483.171	1856.553	0.260	0.428	0.295	-0.067	0.314
653.000	-2.340	653.000	3514344822.471	1055.922	814.297	1870.219	0.435	0.428	0.295	-0.067	0.314
654.000	-2.340	654.000	3514344823.971	1890.376	190.131	2080.507	0.091	0.428	0.295	-0.067	-2.752
655.000	1.970	655.000	3514344825.471	1757.531	223.086	1980.617	0.113	0.428	0.295	-0.067	-2.752
656.000	1.970	656.000	3514344826.969	1510.623	183.323	1693.945	0.108	1.661	0.295	-0.067	-2.752
657.000	2.067	657.000	3514344828.469	1206.305	426.734	1633.038	0.261	1.661	0.295	-0.067	-2.752
658.000	2.067	658.000	3514344829.971	1845.577	283.963	2129.540	0.133	1.661	-0.149	-0.067	-2.752
659.000	0.331	659.000	3514344831.471	1829.237	425.254	2254.491	0.189	1.661	-0.149	-0.067	-2.752
660.000	0.331	660.000	3514344832.971	1722.677	230.584	1953.262	0.118	1.661	-0.149	-3.027	-2.752
661.000	5.091	661.000	3514344834.471	1769.697	189.539	1959.236	0.097	1.661	-0.149	-3.027	-2.752
662.000	5.091	662.000	3514344835.972	724.609	1107.534	1832.143	0.605	1.661	-0.149	-3.027	-0.039
663.000	6.720	663.000	3514344837.471	1671.084	181.744	1852.828	0.098	1.661	-0.149	-3.027	-0.039
664.000	6.720	664.000	3514344838.971	908.691	874.977	1783.668	0.491	-1.126	-0.149	-3.027	-0.039
665.000	4.012	665.000	3514344840.470	1703.763	224.566	1928.328	0.116	-1.126	-0.149	-3.027	-0.039
666.000	4.012	666.000	3514344841.970	1526.873	379.472	1906.345	0.199	-1.126	-0.621	-3.027	-0.039
667.000	1.765	667.000	3514344843.470	1966.389	176.416	2142.805	0.082	-1.126	-0.621	-3.027	-0.039
676.000	-3.116	676.000	3514344856.972	1691.020	442.718	2133.738	0.207	0.727	2.495	-2.660	3.454
677.000	1.105	677.000	3514344858.471	1561.993	119.584	1681.578	0.071	0.727	2.495	-2.660	3.454
704.000	2.769	704.000	3514344898.972	887.202	897.078	1784.280	0.503	0.793	-0.835	-0.645	-0.417
705.000	1.946	705.000	3514344900.482	1756.510	110.507	1867.017	0.059	0.793	-0.835	-0.645	-0.417
714.000	-2.819	714.000	3514344913.972	1517.505	338.427	1855.932	0.182	2.458	-0.174	3.683	3.421
715.000	-4.499	715.000	3514344915.472	2122.056	24.075	2146.130	0.011	2.458	-0.174	3.683	3.421
716.000	-4.499	716.000	3514344916.972	1191.697	849.324	2041.021	0.416	2.458	-0.174	-0.774	3.421
717.000	-2.198	717.000	3514344918.472	1785.814	231.867	2017.681	0.115	2.458	-0.174	-0.774	3.421
718.000	-2.198	718.000	3514344919.972	744.233	1255.831	2000.064	0.628	2.458	-0.174	-0.774	-0.929
719.000	0.029	719.000	3514344921.472	1151.693	311.787	1463.480	0.213	2.458	-0.174	-0.774	-0.929
720.000	0.029	720.000	3514344922.973	1263.581	494.025	1757.605	0.281	1.394	-0.174	-0.774	-0.929
721.000	-0.032	721.000	3514344924.473	1752.692	290.574	2043.265	0.142	1.394	-0.174	-0.774	-0.929
722.000	-0.032	722.000	3514344925.973	1674.636	361.022	2035.658	0.177	1.394	3.563	-0.774	-0.929
723.000	2.038	723.000	3514344927.472	1566.522	401.771	1968.293	0.204	1.394	3.563	-0.774	-0.929
732.000	-2.318	732.000	3514344940.973	1424.487	555.297	1979.783	0.280	0.309	0.804	-1.501	0.599
733.000	0.466	733.000	3514344942.474	1115.240	667.875	1783.116	0.375	0.309	0.804	-1.501	0.599
734.000	0.466	734.000	3514344943.973	1097.347	922.041	2019.388	0.457	0.309	0.804	-1.501	-0.607
735.000	2.353	735.000	3514344945.474	1392.607	370.691	1763.298	0.210	0.309	0.804	-1.501	-0.607
736.000	2.353	736.000	3514344946.973	880.497	951.641	1832.138	0.519	-0.629	0.804	-1.501	-0.607
737.000	0.244	737.000	3514344948.473	-13.986	-62.357	-76.343	0.817	-0.629	0.804	-1.501	-0.607
738.000	0.244	738.000	3514344949.973	1742.568	168.720	1911.289	0.088	-0.629	0.477	-1.501	-0.607
739.000	-0.644	739.000	3514344951.473	1462.626	516.619	1979.245	0.261	-0.629	0.477	-1.501	-0.607
740.000	-0.644	740.000	3514344952.973	1227.794	488.795	1716.589	0.285	-0.629	0.477	0.722	-0.607
741.000	-0.147	741.000	3514344954.473	1258.830	526.190	1785.020	0.295	-0.629	0.477	0.722	-0.607
742.000	-0.147	742.000	3514344955.980	1624.908	513.166	2138.074	0.240	-0.629	0.477	0.722	2.721
743.000	-1.658	743.000	3514344957.482	-27.306	-14.603	-41.909	0.348	-0.629	0.477	0.722	2.721
904.000	1.237	904.000	3514345198.984	1908.802	320.568	2229.371	0.144	0.352	0.705	0.196	3.407
905.000	0.148	905.000	3514345200.484	1266.467	707.737	1974.204	0.358	0.352	0.705	0.196	3.407
906.000	0.148	906.000	3514345201.984	1811.344	-9.571	1801.773	-0.005	0.352	1.399	0.196	3.407
907.000	0.973	907.000	3514345203.485	1579.975	464.918	2044.893	0.227	0.352	1.399	0.196	3.407
908.000	0.973	908.000	3514345204.985	1344.122	391.411	1735.534	0.226	0.352	1.399	-1.576	3.407
909.000	3.013	909.000	3514345206.485	1283.605	523.526	1807.131	0.290	0.352	1.399	-1.576	3.407
910.000	3.013	910.000	3514345207.985	1337.640	600.289	1937.929	0.310	0.352	1.399	-1.576	-3.064
911.000	6.802	911.000	3514345209.485	1387.324	520.270	1907.594	0.273	0.352	1.399	-1.576	-3.064
912.000	6.802	912.000	3514345210.984	1161.194	1094.313	2255.508	0.485	-3.201	1.399	-1.576	-3.064
913.000	2.093	913.000	3514345212.484	1529.492	374.440	1903.933	0.197	-3.201	1.399	-1.576	-3.064
914.000	2.093	914.000	3514345213.985	982.795	799.300	1782.094	0.449	-3.201	-0.016	-1.576	-3.064
915.000	1.586	915.000	3514345215.484	1337.551	741.382	2078.933	0.357	-3.201	-0.016	-1.576	-3.064
916.000	1.586	916.000	3514345216.984	1534.554	442.520	1977.075	0.224	-3.201	-0.016	0.177	-3.064
917.000	2.025	917.000	3514345218.484	-1.154	27.232	26.078	1.044	-3.201	-0.016	0.177	-3.064
918.000	2.025	918.000	3514345219.985	-3.241	90.675	87.434	1.037	-3.201	-0.016	0.177	1.869
919.000	0.774	919.000	3514345221.485	-5.772	-26.936	-32.708	0.824	-3.201	-0.016	0.177	1.869
920.000	0.774	920.000	3514345222.985	57.898	114.651	172.548	0.664	2.216	-0.016	0.177	1.869
921.000	1.562	921.000	3514345224.485	-40.093	-49.827	-89.920	0.554	2.216	-0.016	0.177	1.869
922.000	1.562	922.000	3514345225.984	-1.643	-43.117	-44.760	0.963	2.216	-1.169	0.177	1.869
923.000	-0.102	923.000	3514345227.485	-6.616	47.656	41.040	1.161	2.216	-1.169	0.177	1.869
974.000	-2.695	974.000	3514345303.985	470.241	1347.492	1817.733	0.741	0.486	-1.115	-1.665	-0.641
975.000	-1.582	975.000	3514345305.485	1726.096	53.773	1779.870	0.030	0.486	-1.115	-1.665	-0.641
988.000	-4.723	988.000	3514345324.981	1370.718	639.755	2010.473	0.318	2.504	-0.441	-2.335	3.863
989.000	-2.084	989.000	3514345326.481	1614.696	346.912	1961.609	0.177	2.504	-0.441	-2.335	3.863
990.000	-2.084	990.000	3514345327.980	956.954	645.774	1602.728	0.403	2.504	-0.441	-2.335	-0.468
991.000	-1.266	991.000	3514345329.480	1002.065	646.070	1648.135	0.392	2.504	-0.441	-2.335	-0.468
992.000	-1.266	992.000	3514345330.979	1012.232	951.740	1963.972	0.485	1.975	-0.441	-2.335	-0.468
993.000	-0.096	993.000	3514345332.483	1288.134	445.875	1734.009	0.257	1.975	-0.441	-2.335	-0.468
994.000	-0.096	994.000	3514345333.985	1483.938	665.902	2149.840	0.310	1.975	1.890	-2.335	-0.468
995.000	1.381	995.000	3514345335.484	1513.553	500.832	2014.385	0.249	1.975	1.890	-2.335	-0.468
996.000	1.381	996.000	3514345336.985	1313.664	845.278	2158.942	0.392	1.975	1.890	1.989	-0.468
997.000	-0.239	997.000	3514345338.486	1215.806	687.017	1902.823	0.361	1.975	1.890	1.989	-0.468
998.000	-0.239	998.000	3514345339.986	1881.630	224.072	2105.702	0.106	1.975	1.890	1.989	0.815
999.000	-0.823	999.000	3514345341.486	1204.573	658.009	1862.582	0.353	1.975	1.890	1.989	0.815
1000.000	-0.823	1000.000	3514345342.986	1559.862	318.496	1878.359	0.170	0.463	1.890	1.989	0.815
1001.000	-1.100	1001.000	3514345344.486	1218.248	537.142	1755.390	0.306	0.463	1.890	1.989	0.815
1002.000	-1.100	1002.000	3514345345.985	1488.867	338.920	1827.787	0.185	0.463	1.257	1.989	0.815
1003.000	-0.178	1003.000	3514345347.485	1569.675	706.651	2276.326	0.310	0.463	1.257	1.989	0.815
1004.000	-0.178	1004.000	3514345348.986	1477.145	583.022	2060.167	0.283	0.463	1.257	-2.241	0.815
1005.000	2.429	1005.000	3514345350.486	1899.123	272.419	2171.542	0.125	0.463	1.257	-2.241	0.815
1006.000	2.429	1006.000	3514345351.985	863.359	767.430	1630.789	0.471	0.463	1.257	-2.241	-1.617
1007.000	4.470	1007.000	3514345353.485	1491.842	316.030	1807.871	0.175	0.463	1.257	-2.241	-1.617
1008.000	4.470	1008.000	3514345354.985	1295.371	421.800	1717.172	0.246	-1.061	1.257	-2.241	-1.617
1009.000	2.651	1009.000	3514345356.486	1781.152	129.253	1910.405	0.068	-1.061	1.257	-2.241	-1.617
1010.000	2.651	1010.000	3514345357.985	1414.674	637.190	2051.864	0.311	-1.061	-0.241	-2.241	-1.617
1011.000	2.129	1011.000	3514345359.485	1487.313	774.435	2261.748	0.342	-1.061	-0.241	-2.241	-1.617
1012.000	2.129	1012.000	3514345360.987	1970.296	169.707	2140.003	0.079	-1.061	-0.241	3.037	-1.617
1013.000	-0.703	1013.000	3514345362.485	1084.427	942.070	2026.497	0.465	-1.061	-0.241	3.037	-1.617
1014.000	-0.703	1014.000	3514345363.987	1335.154	585.883	1921.037	0.305	-1.061	-0.241	3.037	0.623
1015.000	-1.023	1015.000	3514345365.487	1495.260	435.515	1930.775	0.226	-1.061	-0.241	3.037	0.623
1016.000	-1.023	1016.000	3514345366.986	1436.075	270.544	1706.619	0.159	2.137	-0.241	3.037	0.623
1017.000	0.520	1017.000	3514345368.486	1123.765	556.185	1679.949	0.331	2.137	-0.241	3.037	0.623
1018.000	0.520	1018.000	3514345369.986	1581.530	210.456	1791.986	0.117	2.137	-2.315	3.037	0.623
1019.000	-2.299	1019.000	3514345371.486	1433.899	272.616	1706.516	0.160	2.137	-2.315	3.037	0.623
1020.000	-2.299	1020.000	3514345372.986	1410.856	594.566	2005.422	0.296	2.137	-2.315	-1.407	0.623
1021.000	-0.691	1021.000	3514345374.485	930.314	687.214	1617.528	0.425	2.137	-2.315	-1.407	0.623
1022.000	-0.691	1022.000	3514345375.985	1368.720	681.097	2049.817	0.332	2.137	-2.315	-1.407	-0.590
1023.000	0.211	1023.000	3514345377.485	1135.176	551.745	1686.920	0.327	2.137	-2.315	-1.407	-0.590
1024.000	0.211	1024.000	3514345378.987	664.891	883.857	1548.748	0.571	-1.880	-2.315	-1.407	-0.590
1025.000	-2.331	1025.000	3514345380.485	1824.043	181.251	2005.293	0.090	-1.880	-2.315	-1.407	-0.590
1026.000	-2.331	1026.000	3514345381.987	1157.420	638.966	1796.386	0.356	-1.880	1.203	-1.407	-0.590
1027.000	-1.567	1027.000	3514345383.486	1414.585	811.929	2226.514	0.365	-1.880	1.203	-1.407	-0.590
1028.000	-1.567	1028.000	3514345384.986	1577.045	341.091	1918.136	0.178	-1.880	1.203	-0.815	-0.590
1029.000	-0.666	1029.000	3514345386.486	1313.309	482.184	1795.493	0.269	-1.880	1.203	-0.815	-0.590
1030.000	-0.666	1030.000	3514345387.986	1530.825	530.630	2061.455	0.257	-1.880	1.203	-0.815	2.144
1031.000	-2.686	1031.000	3514345389.486	1037.895	883.068	1920.963	0.460	-1.880	1.203	-0.815	2.144
1032.000	-2.686	1032.000	3514345390.985	1709.712	195.459	1905.171	0.103	2.335	1.203	-0.815	2.144
1033.000	-0.931	1033.000	3514345392.485	1348.296	466.694	1814.990	0.257	2.335	1.203	-0.815	2.144
1034.000	-0.931	1034.000	3514345393.986	1865.201	-8.189	1857.012	-0.004	2.335	-1.644	-0.815	2.144
1035.000	-3.119	1035.000	3514345395.486	1471.639	353.523	1825.162	0.194	2.335	-1.644	-0.815	2.144
1036.000	-3.119	1036.000	3514345396.987	1475.724	618.937	2094.661	0.295	2.335	-1.644	-0.098	2.144
1037.000	-2.710	1037.000	3514345398.487	1025.552	791.801	1817.353	0.436	2.335	-1.644	-0.098	2.144
1038.000	-2.710	1038.000	3514345399.987	1283.694	729.739	2013.434	0.362	2.335	-1.644	-0.098	-3.143
1039.000	0.792	1039.000	3514345401.486	1674.192	194.571	1868.763	0.104	2.335	-1.644	-0.098	-3.143
1040.000	0.792	1040.000	3514345402.985	1244.178	587.758	1831.936	0.321	-2.302	-1.644	-0.098	-3.143
1041.000	-2.099	1041.000	3514345404.486	1773.027	44.301	1817.328	0.024	-2.302	-1.644	-0.098	-3.143
1042.000	-2.099	1042.000	3514345405.986	1022.533	854.454	1876.987	0.455	-2.302	0.896	-0.098	-3.143
1043.000	-1.708	1043.000	3514345407.486	1467.421	355.200	1822.622	0.195	-2.302	0.896	-0.098	-3.143
1044.000	-1.708	1044.000	3514345408.986	1701.055	149.283	1850.337	0.081	-2.302	0.896	-0.645	-3.143
1045.000	-0.746	1045.000	3514345410.485	1580.064	309.123	1889.187	0.164	-2.302	0.896	-0.645	-3.143
1046.000	-0.746	1046.000	3514345411.984	822.466	980.057	1802.523	0.544	-2.302	0.896	-0.645	1.907
1047.000	-2.438	1047.000	3514345413.487	1337.063	467.582	1804.645	0.259	-2.302	0.896	-0.645	1.907
1048.000	-2.438	1048.000	3514345414.986	1611.322	164.872	1776.194	0.093	3.791	0.896	-0.645	1.907
1049.000	0.968	1049.000	3514345416.486	1109.824	628.409	1738.232	0.362	3.791	0.896	-0.645	1.907
1050.000	0.968	1050.000	3514345417.987	1618.737	148.395	1767.131	0.084	3.791	-1.005	-0.645	1.907
1051.000	-0.538	1051.000	3514345419.487	1534.510	211.443	1745.953	0.121	3.791	-1.005	-0.645	1.907
1052.000	-0.538	1052.000	3514345420.986	1759.130	338.624	2097.754	0.161	3.791	-1.005	3.345	1.907
1053.000	-3.794	1053.000	3514345422.486	784.860	1037.974	1822.834	0.569	3.791	-1.005	3.345	1.907
1054.000	-3.794	1054.000	3514345423.986	1713.043	258.507	1971.550	0.131	3.791	-1.005	3.345	-1.463
1055.000	-1.854	1055.000	3514345425.487	1403.574	356.680	1760.255	0.203	3.791	-1.005	3.345	-1.463
1056.000	-1.854	1056.000	3514345426.985	1431.591	357.864	1789.455	0.200	-2.442	-1.005	3.345	-1.463
1057.000	-4.781	1057.000	3514345428.487	1482.118	-33.448	1448.670	-0.023	-2.442	-1.005	3.345	-1.463
1058.000	-4.781	1058.000	3514345429.988	1221.889	475.968	1697.858	0.280	-2.442	0.355	3.345	-1.463
1059.000	-4.860	1059.000	3514345431.487	1635.875	590.619	2226.494	0.265	-2.442	0.355	3.345	-1.463
1060.000	-4.860	1060.000	3514345432.987	1365.790	686.622	2052.412	0.335	-2.442	0.355	-3.857	-1.463
1061.000	-0.473	1061.000	3514345434.487	2015.362	271.432	2286.794	0.119	-2.442	0.355	-3.857	-1.463
1062.000	-0.473	1062.000	3514345435.987	1037.895	948.385	1986.280	0.477	-2.442	0.355	-3.857	-0.023
1063.000	0.018	1063.000	3514345437.482	1354.601	384.800	1739.401	0.221	-2.442	0.355	-3.857	-0.023
1064.000	0.018	1064.000	3514345438.986	1115.551	748.091	1863.643	0.401	2.670	0.355	-3.857	-0.023
1065.000	2.269	1065.000	3514345440.486	1181.663	636.401	1818.063	0.350	2.670	0.355	-3.857	-0.023
1066.000	2.269	1066.000	3514345441.986	1807.836	152.045	1959.882	0.078	2.670	0.610	-3.857	-0.023
1067.000	2.411	1067.000	3514345443.486	1731.557	338.920	2070.478	0.164	2.670	0.610	-3.857	-0.023
1068.000	2.411	1068.000	3514345444.986	1440.027	368.816	1808.843	0.204	2.670	0.610	3.157	-0.023
1069.000	-0.583	1069.000	3514345446.486	663.070	1001.369	1664.439	0.602	2.670	0.610	3.157	-0.023
1070.000	-0.583	1070.000	3514345447.987	1719.658	246.864	1966.522	0.126	2.670	0.610	3.157	1.586
1071.000	-1.780	1071.000	3514345449.488	1502.675	709.710	2212.385	0.321	2.670	0.610	3.157	1.586
1072.000	-1.780	1072.000	3514345450.987	1807.392	214.699	2022.091	0.106	-2.398	0.610	3.157	1.586
1073.000	-4.732	1073.000	3514345452.487	1395.760	267.288	1663.048	0.161	-2.398	0.610	3.157	1.586
1074.000	-4.732	1074.000	3514345453.987	1339.283	563.585	1902.867	0.296	-2.398	0.354	3.157	1.586
1075.000	-4.713	1075.000	3514345455.487	1730.092	219.435	1949.527	0.113	-2.398	0.354	3.157	1.586
1084.000	3.176	1084.000	3514345468.986	1844.911	275.872	2120.783	0.130	1.192	0.742	2.094	-1.889
1085.000	1.372	1085.000	3514345470.487	1193.162	533.590	1726.752	0.309	1.192	0.742	2.094	-1.889
1086.000	1.372	1086.000	3514345471.987	1852.636	188.947	2041.583	0.093	1.192	0.742	2.094	0.082
1087.000	1.668	1087.000	3514345473.487	1352.692	353.128	1705.820	0.207	1.192	0.742	2.094	0.082
1088.000	1.668	1088.000	3514345474.987	1439.805	58.213	1498.018	0.039	-2.241	0.742	2.094	0.082
1089.000	-1.073	1089.000	3514345476.487	1263.270	293.632	1556.902	0.189	-2.241	0.742	2.094	0.082
1090.000	-1.073	1090.000	3514345477.987	1334.621	487.907	1822.528	0.268	-2.241	-1.629	2.094	0.082
1091.000	-3.057	1091.000	3514345479.486	1314.197	702.409	2016.606	0.348	-2.241	-1.629	2.094	0.082
1092.000	-3.057	1092.000	3514345480.986	1539.616	433.048	1972.664	0.220	-2.241	-1.629	-1.905	0.082
1093.000	-0.740	1093.000	3514345482.488	930.980	697.574	1628.554	0.428	-2.241	-1.629	-1.905	0.082
1094.000	-0.740	1094.000	3514345483.988	1409.479	410.848	1820.328	0.226	-2.241	-1.629	-1.905	-1.480
1095.000	1.107	1095.000	3514345485.488	968.498	666.691	1635.189	0.408	-2.241	-1.629	-1.905	-1.480
1096.000	1.107	1096.000	3514345486.987	1578.510	317.608	1896.119	0.168	0.696	-1.629	-1.905	-1.480
1097.000	1.463	1097.000	3514345488.488	905.628	704.579	1610.207	0.438	0.696	-1.629	-1.905	-1.480
1098.000	1.463	1098.000	3514345489.988	1659.984	196.446	1856.430	0.106	0.696	-1.133	-1.905	-1.480
1099.000	-0.100	1099.000	3514345491.487	1664.203	549.278	2213.480	0.248	0.696	-1.133	-1.905	-1.480
1100.000	-0.100	1100.000	3514345492.987	1979.088	245.088	2224.176	0.110	0.696	-1.133	-1.783	-1.480
1101.000	2.183	1101.000	3514345494.487	850.261	1058.004	1908.265	0.554	0.696	-1.133	-1.783	-1.480
1102.000	2.183	1102.000	3514345495.987	1375.158	549.574	1924.732	0.286	0.696	-1.133	-1.783	-2.114
1103.000	4.704	1103.000	3514345497.487	976.490	778.283	1754.774	0.444	0.696	-1.133	-1.783	-2.114
1104.000	4.704	1104.000	3514345498.987	1558.930	408.579	1967.509	0.208	-2.919	-1.133	-1.783	-2.114
1105.000	1.340	1105.000	3514345500.487	1589.033	578.385	2167.418	0.267	-2.919	-1.133	-1.783	-2.114
1106.000	1.340	1106.000	3514345501.988	1618.248	463.240	2081.489	0.223	-2.919	-1.214	-1.783	-2.114
1107.000	-0.427	1107.000	3514345503.488	1360.151	657.910	2018.061	0.326	-2.919	-1.214	-1.783	-2.114
1108.000	-0.427	1108.000	3514345504.987	2046.353	199.307	2245.660	0.089	-2.919	-1.214	-2.366	-2.114
1109.000	2.475	1109.000	3514345506.488	1917.682	131.621	2049.304	0.064	-2.919	-1.214	-2.366	-2.114
1110.000	2.475	1110.000	3514345507.988	968.942	1170.089	2139.031	0.547	-2.919	-1.214	-2.366	-2.076
1111.000	5.215	1111.000	3514345509.487	1994.272	259.987	2254.259	0.115	-2.919	-1.214	-2.366	-2.076
1112.000	5.215	1112.000	3514345510.987	668.753	1211.924	1880.677	0.644	-0.390	-1.214	-2.366	-2.076
1113.000	4.571	1113.000	3514345512.487	1509.912	324.416	1834.329	0.177	-0.390	-1.214	-2.366	-2.076
1114.000	4.571	1114.000	3514345513.987	1443.978	425.648	1869.626	0.228	-0.390	-2.088	-2.366	-2.076
1115.000	1.828	1115.000	3514345515.487	1779.420	488.006	2267.426	0.215	-0.390	-2.088	-2.366	-2.076
1134.000	6.287	1134.000	3514345543.988	789.078	1225.342	2014.420	0.608	0.426	-0.586	-2.861	3.619
1135.000	3.081	1135.000	3514345545.487	1156.799	722.339	1879.138	0.384	0.426	-0.586	-2.861	3.619
1136.000	3.081	1136.000	3514345546.987	1750.738	165.760	1916.498	0.086	-2.291	-0.586	-2.861	3.619
1137.000	0.271	1137.000	3514345548.488	1131.091	527.571	1658.662	0.318	-2.291	-0.586	-2.861	3.619
1138.000	0.271	1138.000	3514345549.987	1263.492	618.739	1882.231	0.329	-2.291	-1.193	-2.861	3.619
1139.000	-1.648	1139.000	3514345551.487	1293.995	474.686	1768.681	0.268	-2.291	-1.193	-2.861	3.619
1148.000	-4.099	1148.000	3514345564.988	1623.754	672.710	2296.464	0.293	0.094	-0.240	-2.047	-2.622
1149.000	-1.464	1149.000	3514345566.487	-44.267	-109.125	-153.392	0.711	0.094	-0.240	-2.047	-2.622
1150.000	-1.464	1150.000	3514345567.988	41.070	76.861	117.931	0.652	0.094	-0.240	-2.047	0.617
1151.000	-1.377	1151.000	3514345569.489	27.128	125.701	152.830	0.822	0.094	-0.240	-2.047	0.617
1152.000	-1.377	1152.000	3514345570.988	-36.053	-32.363	-68.416	0.473	-2.073	-0.240	-2.047	0.617
1153.000	-4.248	1153.000	3514345572.488	2113.131	129.944	2243.075	0.058	-2.073	-0.240	-2.047	0.617
1154.000	-4.248	1154.000	3514345573.988	1269.797	892.934	2162.731	0.413	-2.073	1.560	-2.047	0.617
1155.000	-3.439	1155.000	3514345575.488	1021.556	1070.732	2092.288	0.512	-2.073	1.560	-2.047	0.617
1166.000	-4.633	1166.000	3514345591.988	-26.862	31.869	5.007	6.365	3.123	-3.940	0.646	-0.081
1167.000	-3.785	1167.000	3514345593.488	-26.329	-71.040	-97.369	0.730	3.123	-3.940	0.646	-0.081
1168.000	-3.785	1168.000	3514345594.989	16.028	56.339	72.367	0.779	-1.002	-3.940	0.646	-0.081
1169.000	-5.445	1169.000	3514345596.487	-9.724	-49.136	-58.860	0.835	-1.002	-3.940	0.646	-0.081
1170.000	-5.445	1170.000	3514345597.988	-59.052	23.976	-35.076	-0.684	-1.002	3.864	0.646	-0.081
1171.000	-2.438	1171.000	3514345599.487	-24.509	-80.512	-105.021	0.767	-1.002	3.864	0.646	-0.081
1194.000	4.118	1194.000	3514345633.988	1444.866	337.440	1782.307	0.189	-0.464	-0.638	-1.316	-3.224
1195.000	2.678	1195.000	3514345635.488	1607.725	696.094	2303.819	0.302	-0.464	-0.638	-1.316	-3.224
1196.000	2.678	1196.000	3514345636.988	1857.387	213.318	2070.705	0.103	-0.464	-0.638	0.577	-3.224
1197.000	2.967	1197.000	3514345638.488	1792.829	234.432	2027.262	0.116	-0.464	-0.638	0.577	-3.224
1198.000	2.967	1198.000	3514345639.989	1066.356	1033.238	2099.594	0.492	-0.464	-0.638	0.577	2.470
1199.000	1.253	1199.000	3514345641.489	1434.388	779.566	2213.954	0.352	-0.464	-0.638	0.577	2.470
1200.000	1.253	1200.000	3514345642.989	1784.571	334.776	2119.347	0.158	-0.866	-0.638	0.577	2.470
1201.000	-0.355	1201.000	3514345644.489	1210.390	609.267	1819.657	0.335	-0.866	-0.638	0.577	2.470
1202.000	-0.355	1202.000	3514345645.989	1821.112	249.430	2070.542	0.120	-0.866	-1.752	0.577	2.470
1203.000	-3.073	1203.000	3514345647.489	2321.057	81.400	2402.457	0.034	-0.866	-1.752	0.577	2.470
1204.000	-3.073	1204.000	3514345648.988	1517.416	998.310	2515.726	0.397	-0.866	-1.752	3.313	2.470
1205.000	-5.693	1205.000	3514345650.489	641.714	1364.167	2005.881	0.680	-0.866	-1.752	3.313	2.470
1206.000	-5.693	1206.000	3514345651.988	2090.887	-51.800	2039.087	-0.025	-0.866	-1.752	3.313	-1.709
1207.000	-3.014	1207.000	3514345653.489	2033.300	96.595	2129.895	0.045	-0.866	-1.752	3.313	-1.709
1208.000	-3.014	1208.000	3514345654.988	1123.454	813.606	1937.061	0.420	-1.886	-1.752	3.313	-1.709
1209.000	-5.857	1209.000	3514345656.488	1705.672	308.827	2014.499	0.153	-1.886	-1.752	3.313	-1.709
1210.000	-5.857	1210.000	3514345657.989	1296.659	569.702	1866.361	0.305	-1.886	3.194	3.313	-1.709
1211.000	-3.413	1211.000	3514345659.489	1242.269	775.619	2017.888	0.384	-1.886	3.194	3.313	-1.709
1228.000	-2.780	1228.000	3514345684.988	2115.440	245.779	2361.219	0.104	-1.088	2.116	-0.924	-3.016
1229.000	-0.835	1229.000	3514345686.488	1321.035	455.939	1776.974	0.257	-1.088	2.116	-0.924	-3.016
1230.000	-0.835	1230.000	3514345687.989	1056.588	919.870	1976.458	0.465	-1.088	2.116	-0.924	-0.656
1231.000	0.770	1231.000	3514345689.489	1824.353	271.531	2095.884	0.130	-1.088	2.116	-0.924	-0.656
1232.000	0.770	1232.000	3514345690.988	1528.383	301.624	1830.007	0.165	1.471	2.116	-0.924	-0.656
1233.000	1.356	1233.000	3514345692.489	1648.574	311.984	1960.558	0.159	1.471	2.116	-0.924	-0.656
1234.000	1.356	1234.000	3514345693.989	2058.164	206.312	2264.476	0.091	1.471	-1.685	-0.924	-0.656
1235.000	-1.244	1235.000	3514345695.489	1218.692	616.174	1834.866	0.336	1.471	-1.685	-0.924	-0.656
1236.000	-1.244	1236.000	3514345696.989	1872.083	256.238	2128.321	0.120	1.471	-1.685	1.838	-0.656
1237.000	-2.300	1237.000	3514345698.489	1456.188	487.019	1943.207	0.251	1.471	-1.685	1.838	-0.656
1238.000	-2.300	1238.000	3514345699.990	2051.548	-184.902	1866.647	-0.099	1.471	-1.685	1.838	0.310
1239.000	-1.653	1239.000	3514345701.489	595.227	1111.086	1706.313	0.651	1.471	-1.685	1.838	0.310
1240.000	-1.653	1240.000	3514345702.988	1578.333	380.854	1959.186	0.194	-0.599	-1.685	1.838	0.310
1241.000	-3.320	1241.000	3514345704.488	1382.973	496.886	1879.858	0.264	-0.599	-1.685	1.838	0.310
1242.000	-3.320	1242.000	3514345705.989	1355.800	472.614	1828.413	0.258	-0.599	-1.896	1.838	0.310
1243.000	-6.281	1243.000	3514345707.489	1941.925	436.304	2378.229	0.183	-0.599	-1.896	1.838	0.310
1282.000	0.379	1282.000	3514345765.990	1247.153	640.347	1887.500	0.339	-2.248	0.520	-0.898	2.071
1283.000	-0.092	1283.000	3514345767.490	1548.229	575.129	2123.358	0.271	-2.248	0.520	-0.898	2.071
1284.000	-0.092	1284.000	3514345768.990	1884.072	203.944	2088.016	0.098	-2.248	0.520	2.427	2.071
1285.000	-1.679	1285.000	3514345770.490	727.228	1158.841	1886.069	0.614	-2.248	0.520	2.427	2.071
1286.000	-1.679	1286.000	3514345771.990	1614.696	330.632	1945.329	0.170	-2.248	0.520	2.427	-1.439
1287.000	0.685	1287.000	3514345773.489	1634.765	154.709	1789.475	0.086	-2.248	0.520	2.427	-1.439
1288.000	0.685	1288.000	3514345774.989	1466.800	344.939	1811.739	0.190	1.616	0.520	2.427	-1.439
1289.000	1.488	1289.000	3514345776.488	1323.521	420.715	1744.236	0.241	1.616	0.520	2.427	-1.439
1290.000	1.488	1290.000	3514345777.989	1670.463	54.168	1724.631	0.031	1.616	-1.524	2.427	-1.439
1291.000	-1.070	1291.000	3514345779.490	1385.015	302.118	1687.133	0.179	1.616	-1.524	2.427	-1.439
1292.000	-1.070	1292.000	3514345780.990	1659.896	225.158	1885.053	0.119	1.616	-1.524	-3.911	-1.439
1293.000	3.776	1293.000	3514345782.491	1301.854	326.686	1628.539	0.201	1.616	-1.524	-3.911	-1.439
1294.000	3.776	1294.000	3514345783.990	-44.045	61.864	17.819	3.472	1.616	-1.524	-3.911	0.915
1295.000	3.986	1295.000	3514345785.491	-43.468	7.203	-36.265	-0.199	1.616	-1.524	-3.911	0.915
1296.000	3.986	1296.000	3514345786.990	-51.371	-84.261	-135.632	0.621	-1.846	-1.524	-3.911	0.915
1297.000	1.234	1297.000	3514345788.489	-19.003	87.813	68.810	1.276	-1.846	-1.524	-3.911	0.915
1298.000	1.234	1298.000	3514345789.990	64.336	112.184	176.520	0.636	-1.846	-0.525	-3.911	0.915
1299.000	-0.270	1299.000	3514345791.489	-50.838	-235.123	-285.961	0.822	-1.846	-0.525	-3.911	0.915
1330.000	-4.565	1330.000	3514345837.990	1656.566	164.576	1821.142	0.090	-0.189	0.305	3.261	0.005
1331.000	-5.303	1331.000	3514345839.490	1562.526	615.779	2178.306	0.283	-0.189	0.305	3.261	0.005
1332.000	-5.303	1332.000	3514345840.990	1931.935	212.726	2144.660	0.099	-0.189	0.305	-3.587	0.005
1333.000	-0.846	1333.000	3514345842.490	1693.995	488.006	2182.000	0.224	-0.189	0.305	-3.587	0.005
1334.000	-0.846	1334.000	3514345843.990	1712.110	525.598	2237.708	0.235	-0.189	0.305	-3.587	-0.572
1335.000	0.848	1335.000	3514345845.491	1510.401	188.355	1698.755	0.111	-0.189	0.305	-3.587	-0.572
1344.000	-1.665	1344.000	3514345858.990	1740.349	-29.797	1710.551	-0.017	0.952	-1.615	0.099	0.786
1345.000	-1.632	1345.000	3514345860.490	1600.844	233.446	1834.289	0.127	0.952	-1.615	0.099	0.786
1346.000	-1.632	1346.000	3514345861.991	1551.826	492.446	2044.272	0.241	0.952	0.246	0.099	0.786
1347.000	-2.469	1347.000	3514345863.490	1539.350	543.753	2083.102	0.261	0.952	0.246	0.099	0.786
1348.000	-2.469	1348.000	3514345864.990	1767.211	291.659	2058.870	0.142	0.952	0.246	2.443	0.786
1349.000	-3.982	1349.000	3514345866.490	782.950	1472.897	2255.848	0.653	0.952	0.246	2.443	0.786
1350.000	-3.982	1350.000	3514345867.991	1923.677	139.120	2062.797	0.067	0.952	0.246	2.443	-3.753
1351.000	0.990	1351.000	3514345869.492	1726.718	379.571	2106.289	0.180	0.952	0.246	2.443	-3.753
1352.000	0.990	1352.000	3514345870.991	1000.599	670.046	1670.645	0.401	1.000	0.246	2.443	-3.753
1353.000	1.095	1353.000	3514345872.491	1352.337	297.184	1649.521	0.180	1.000	0.246	2.443	-3.753
1354.000	1.095	1354.000	3514345873.991	1779.509	-0.395	1779.115	-0.000	1.000	-1.050	2.443	-3.753
1355.000	-1.185	1355.000	3514345875.491	2250.815	40.552	2291.367	0.018	1.000	-1.050	2.443	-3.753
1370.000	6.736	1370.000	3514345897.990	2178.266	-10.261	2168.005	-0.005	0.348	0.112	0.256	-2.687
1371.000	5.797	1371.000	3514345899.491	1811.877	317.312	2129.189	0.149	0.348	0.112	0.256	-2.687
1372.000	5.797	1372.000	3514345900.990	1923.587	267.387	2190.974	0.122	0.348	0.112	-0.905	-2.687
1373.000	7.833	1373.000	3514345902.491	1850.061	240.846	2090.906	0.115	0.348	0.112	-0.905	-2.687
1374.000	7.833	1374.000	3514345903.992	1435.098	623.179	2058.278	0.303	0.348	0.112	-0.905	2.774
1375.000	6.127	1375.000	3514345905.492	1411.921	442.520	1854.442	0.239	0.348	0.112	-0.905	2.774
1376.000	6.127	1376.000	3514345906.991	1781.330	177.403	1958.733	0.091	-2.191	0.112	-0.905	2.774
1377.000	2.884	1377.000	3514345908.491	1859.873	130.141	1990.015	0.065	-2.191	0.112	-0.905	2.774
1378.000	2.884	1378.000	3514345909.991	2141.281	105.968	2247.249	0.047	-2.191	-0.238	-0.905	2.774
1379.000	1.388	1379.000	3514345911.492	1590.987	293.238	1884.224	0.156	-2.191	-0.238	-0.905	2.774
1380.000	1.388	1380.000	3514345912.992	1860.761	215.784	2076.545	0.104	-2.191	-0.238	1.651	2.774
1381.000	0.825	1381.000	3514345914.491	1724.231	515.830	2240.061	0.230	-2.191	-0.238	1.651	2.774
1382.000	0.825	1382.000	3514345915.992	1475.058	372.862	1847.920	0.202	-2.191	-0.238	1.651	-1.303
1383.000	3.395	1383.000	3514345917.491	1368.054	677.150	2045.204	0.331	-2.191	-0.238	1.651	-1.303
1392.000	2.370	1392.000	3514345930.991	2057.276	255.251	2312.527	0.110	0.409	-0.455	-0.251	0.936
1393.000	1.777	1393.000	3514345932.491	1720.901	154.413	1875.315	0.082	0.409	-0.455	-0.251	0.936
1394.000	1.777	1394.000	3514345933.991	1972.161	75.085	2047.246	0.037	0.409	1.258	-0.251	0.936
1395.000	1.893	1395.000	3514345935.491	1787.679	398.219	2185.898	0.182	0.409	1.258	-0.251	0.936
1396.000	1.893	1396.000	3514345936.993	2344.855	240.550	2585.405	0.093	0.409	1.258	-3.090	0.936
1397.000	6.133	1397.000	3514345938.493	1961.105	525.302	2486.407	0.211	0.409	1.258	-3.090	0.936
1398.000	6.133	1398.000	3514345939.993	1049.350	975.222	2024.573	0.482	0.409	1.258	-3.090	-2.496
1399.000	10.088	1399.000	3514345941.493	1998.624	153.525	2152.149	0.071	0.409	1.258	-3.090	-2.496
1408.000	5.272	1408.000	3514345954.992	1622.777	352.142	1974.919	0.178	-0.790	-0.784	2.380	1.841
1409.000	3.481	1409.000	3514345956.492	1328.805	519.086	1847.891	0.281	-0.790	-0.784	2.380	1.841
1410.000	3.481	1410.000	3514345957.992	1931.802	-122.643	1809.159	-0.068	-0.790	-0.854	2.380	1.841
1411.000	1.278	1411.000	3514345959.492	1928.693	156.387	2085.080	0.075	-0.790	-0.854	2.380	1.841
