mesurement	 time stamp	N1S0	N3P0	 Ntot	ex.rate	time stamp 2		# AOM frequency A	# AOM frequency B	# Zeeman shift (Hz)	# fHgAOM (Hz)	# drift rate A	# drift rate B
380.000	45.303	380.000	3512976195.069	1290.843	210.456	1501.299	0.140	3.273	1.303
381.000	48.577	381.000	3512976196.569	658.542	520.862	1179.403	0.442	3.273	1.303
382.000	48.577	382.000	3512976198.061	1160.262	134.680	1294.942	0.104	3.273	-3.913
383.000	44.664	383.000	3512976199.573	979.687	344.446	1324.133	0.260	3.273	-3.913
384.000	44.664	384.000	3512976201.069	936.885	409.072	1345.958	0.304	-3.157	-3.913
385.000	41.507	385.000	3512976202.568	1021.023	266.203	1287.226	0.207	-3.157	-3.913
386.000	41.507	386.000	3512976204.073	856.344	376.907	1233.251	0.306	-3.157	0.410
387.000	41.916	387.000	3512976205.574	742.147	496.688	1238.835	0.401	-3.157	0.410
388.000	41.916	388.000	3512976207.069	989.233	263.342	1252.574	0.210	0.924	0.410
389.000	42.840	389.000	3512976208.574	1087.845	375.723	1463.568	0.257	0.924	0.410
390.000	42.840	390.000	3512976210.073	906.072	277.846	1183.917	0.235	0.924	-1.783
391.000	41.057	391.000	3512976211.575	1021.157	258.408	1279.565	0.202	0.924	-1.783
392.000	41.057	392.000	3512976213.073	885.204	325.896	1211.100	0.269	-0.206	-1.783
393.000	40.851	393.000	3512976214.573	706.760	392.398	1099.157	0.357	-0.206	-1.783
394.000	40.851	394.000	3512976216.073	939.327	318.003	1257.330	0.253	-0.206	0.628
395.000	41.479	395.000	3512976217.575	809.324	332.112	1141.436	0.291	-0.206	0.628
396.000	41.479	396.000	3512976219.074	998.113	466.200	1464.313	0.318	-0.973	0.628
397.000	40.506	397.000	3512976220.569	832.900	295.902	1128.802	0.262	-0.973	0.628
398.000	40.506	398.000	3512976222.069	848.396	278.339	1126.735	0.247	-0.973	0.256
399.000	40.762	399.000	3512976223.574	830.014	412.328	1242.343	0.332	-0.973	0.256
400.000	40.762	400.000	3512976225.068	879.165	321.851	1201.016	0.268	-0.141	0.256
401.000	40.621	401.000	3512976226.569	729.670	326.784	1056.455	0.309	-0.141	0.256
402.000	40.621	402.000	3512976228.060	872.638	208.582	1081.220	0.193	-0.141	-0.598
403.000	40.023	403.000	3512976229.570	797.203	401.376	1198.579	0.335	-0.141	-0.598
404.000	40.023	404.000	3512976231.075	1064.535	196.248	1260.784	0.156	-1.088	-0.598
405.000	38.935	405.000	3512976232.574	900.388	257.224	1157.613	0.222	-1.088	-0.598
406.000	38.935	406.000	3512976234.073	995.982	149.973	1145.955	0.131	-1.088	-1.676
407.000	37.259	407.000	3512976235.574	936.042	203.549	1139.591	0.179	-1.088	-1.676
408.000	37.259	408.000	3512976237.074	918.015	389.734	1307.749	0.298	-0.854	-1.676
409.000	36.405	409.000	3512976238.574	778.155	352.043	1130.198	0.311	-0.854	-1.676
410.000	36.405	410.000	3512976240.072	691.753	431.766	1123.518	0.384	-0.854	1.116
411.000	37.522	411.000	3512976241.569	764.835	477.251	1242.086	0.384	-0.854	1.116
412.000	37.522	412.000	3512976243.069	896.215	277.254	1173.469	0.236	0.681	1.116
413.000	38.203	413.000	3512976244.574	683.716	496.392	1180.109	0.421	0.681	1.116
414.000	38.203	414.000	3512976246.061	993.584	229.696	1223.280	0.188	0.681	-1.383
415.000	36.750	415.000	3512976247.575	891.686	241.536	1133.222	0.213	0.681	-1.383
416.000	36.750	416.000	3512976249.073	975.780	393.582	1369.361	0.287	-2.177	-1.383
417.000	34.464	417.000	3512976250.574	955.400	233.544	1188.944	0.196	-2.177	-1.383
418.000	34.464	418.000	3512976252.062	779.132	347.800	1126.932	0.309	-2.177	0.695
419.000	35.120	419.000	3512976253.575	778.865	180.758	959.623	0.188	-2.177	0.695
420.000	35.120	420.000	3512976255.074	1178.155	180.165	1358.321	0.133	1.049	0.695
421.000	36.108	421.000	3512976256.575	874.592	278.240	1152.832	0.241	1.049	0.695
422.000	36.108	422.000	3512976258.061	880.098	253.574	1133.671	0.224	1.049	-0.521
423.000	35.521	423.000	3512976259.574	801.376	403.547	1204.923	0.335	1.049	-0.521
424.000	35.521	424.000	3512976261.069	967.344	258.507	1225.851	0.211	-0.165	-0.521
425.000	35.282	425.000	3512976262.569	795.072	211.936	1007.008	0.210	-0.165	-0.521
426.000	35.282	426.000	3512976264.070	1100.810	83.768	1184.578	0.071	-0.165	-1.160
427.000	33.995	427.000	3512976265.574	961.838	242.720	1204.558	0.202	-0.165	-1.160
428.000	33.995	428.000	3512976267.073	891.597	226.934	1118.531	0.203	-1.307	-1.160
429.000	32.546	429.000	3512976268.574	947.541	182.139	1129.680	0.161	-1.307	-1.160
430.000	32.546	430.000	3512976270.063	867.710	319.483	1187.193	0.269	-1.307	0.013
431.000	32.427	431.000	3512976271.574	859.363	331.027	1190.390	0.278	-1.307	0.013
432.000	32.427	432.000	3512976273.076	880.542	292.646	1173.187	0.249	1.009	0.013
433.000	33.336	433.000	3512976274.576	674.437	423.872	1098.309	0.386	1.009	0.013
434.000	33.336	434.000	3512976276.073	913.309	174.443	1087.752	0.160	1.009	-0.268
435.000	32.916	435.000	3512976277.576	891.331	89.195	980.526	0.091	1.009	-0.268
436.000	32.916	436.000	3512976279.075	921.567	244.102	1165.669	0.209	-2.109	-0.268
437.000	30.597	437.000	3512976280.574	902.520	183.224	1085.744	0.169	-2.109	-0.268
438.000	30.597	438.000	3512976282.062	820.335	286.627	1106.962	0.259	-2.109	1.107
439.000	31.600	439.000	3512976283.576	673.415	428.016	1101.432	0.389	-2.109	1.107
440.000	31.600	440.000	3512976285.075	1078.921	164.576	1243.497	0.132	0.843	1.107
441.000	32.265	441.000	3512976286.573	700.633	234.235	934.868	0.251	0.843	1.107
442.000	32.265	442.000	3512976288.062	1008.325	49.925	1058.250	0.047	0.843	-2.396
443.000	29.639	443.000	3512976289.576	826.152	320.272	1146.424	0.279	0.843	-2.396
444.000	29.639	444.000	3512976291.076	786.991	235.419	1022.410	0.230	-1.902	-2.396
445.000	27.456	445.000	3512976292.577	814.652	291.955	1106.607	0.264	-1.902	-2.396
446.000	27.456	446.000	3512976294.074	763.991	279.918	1043.909	0.268	-1.902	-0.459
447.000	26.732	447.000	3512976295.574	789.433	300.342	1089.774	0.276	-1.902	-0.459
448.000	26.732	448.000	3512976297.074	855.900	180.758	1036.657	0.174	0.040	-0.459
449.000	26.479	449.000	3512976298.574	771.007	306.360	1077.367	0.284	0.040	-0.459
450.000	26.479	450.000	3512976300.062	802.975	322.443	1125.418	0.287	0.040	-0.947
451.000	25.207	451.000	3512976301.576	781.041	310.307	1091.348	0.284	0.040	-0.947
452.000	25.207	452.000	3512976303.074	797.958	242.720	1040.678	0.233	0.020	-0.947
453.000	24.920	453.000	3512976304.577	769.852	233.150	1003.002	0.232	0.020	-0.947
454.000	24.920	454.000	3512976306.063	820.024	123.531	943.555	0.131	0.020	-0.478
455.000	24.077	455.000	3512976307.570	777.978	232.163	1010.141	0.230	0.020	-0.478
456.000	24.077	456.000	3512976309.075	770.785	279.128	1049.913	0.266	-0.949	-0.478
457.000	22.757	457.000	3512976310.569	753.335	152.341	905.677	0.168	-0.949	-0.478
458.000	22.757	458.000	3512976312.062	749.828	184.704	934.532	0.198	-0.949	0.337
459.000	22.727	459.000	3512976313.576	693.973	403.448	1097.421	0.368	-0.949	0.337
460.000	22.727	460.000	3512976315.077	901.054	231.275	1132.329	0.204	0.275	0.337
461.000	22.628	461.000	3512976316.577	712.532	236.504	949.036	0.249	0.275	0.337
462.000	22.628	462.000	3512976318.076	856.921	166.944	1023.865	0.163	0.275	-1.528
463.000	20.639	463.000	3512976319.578	986.747	44.400	1031.147	0.043	0.275	-1.528
464.000	20.639	464.000	3512976321.076	709.557	333.790	1043.347	0.320	-0.806	-1.528
465.000	19.399	465.000	3512976322.573	868.065	229.696	1097.761	0.209	-0.806	-1.528
466.000	19.399	466.000	3512976324.076	675.991	247.358	923.348	0.268	-0.806	2.589
467.000	21.633	467.000	3512976325.574	729.182	350.168	1079.350	0.324	-0.806	2.589
468.000	21.633	468.000	3512976327.073	1107.204	18.155	1125.358	0.016	0.548	2.589
469.000	21.753	469.000	3512976328.575	716.350	183.619	899.969	0.204	0.548	2.589
470.000	21.753	470.000	3512976330.073	833.566	174.245	1007.812	0.173	0.548	-2.883
471.000	18.353	471.000	3512976331.573	867.843	177.501	1045.345	0.170	0.548	-2.883
472.000	18.353	472.000	3512976333.074	775.846	341.979	1117.825	0.306	-0.291	-2.883
473.000	17.598	473.000	3512976334.576	773.449	265.216	1038.665	0.255	-0.291	-2.883
474.000	17.598	474.000	3512976336.077	805.816	266.894	1072.710	0.249	-0.291	1.273
475.000	18.392	475.000	3512976337.574	842.224	237.590	1079.814	0.220	-0.291	1.273
476.000	18.392	476.000	3512976339.074	713.331	260.283	973.614	0.267	-0.061	1.273
477.000	17.840	477.000	3512976340.578	852.658	273.208	1125.867	0.243	-0.061	1.273
478.000	17.840	478.000	3512976342.063	767.410	262.256	1029.667	0.255	-0.061	0.442
479.000	17.801	479.000	3512976343.576	878.277	230.584	1108.861	0.208	-0.061	0.442
480.000	17.801	480.000	3512976345.075	826.773	140.797	967.571	0.146	0.113	0.442
481.000	17.405	481.000	3512976346.573	779.798	414.894	1194.692	0.347	0.113	0.442
482.000	17.405	482.000	3512976348.076	853.857	193.880	1047.738	0.185	0.113	-0.584
483.000	16.287	483.000	3512976349.574	842.269	268.571	1110.840	0.242	0.113	-0.584
484.000	16.287	484.000	3512976351.076	930.714	261.368	1192.082	0.219	-1.517	-0.584
485.000	14.159	485.000	3512976352.575	953.624	242.523	1196.147	0.203	-1.517	-0.584
486.000	14.159	486.000	3512976354.075	672.749	395.259	1068.008	0.370	-1.517	-0.211
487.000	13.377	487.000	3512976355.578	794.095	265.118	1059.212	0.250	-1.517	-0.211
488.000	13.377	488.000	3512976357.074	887.290	355.003	1242.293	0.286	1.565	-0.211
489.000	14.379	489.000	3512976358.574	850.572	406.310	1256.881	0.323	1.565	-0.211
490.000	14.379	490.000	3512976360.064	892.885	65.317	958.202	0.068	1.565	0.332
491.000	14.127	491.000	3512976361.578	926.274	240.451	1166.725	0.206	1.565	0.332
492.000	14.127	492.000	3512976363.077	929.559	164.872	1094.431	0.151	-2.385	0.332
493.000	11.031	493.000	3512976364.574	995.893	122.643	1118.536	0.110	-2.385	0.332
494.000	11.031	494.000	3512976366.074	817.360	386.576	1203.937	0.321	-2.385	-0.518
495.000	9.943	495.000	3512976367.577	815.584	214.403	1029.987	0.208	-2.385	-0.518
496.000	9.943	496.000	3512976369.077	995.094	267.979	1263.073	0.212	1.977	-0.518
497.000	11.382	497.000	3512976370.574	832.101	286.627	1118.728	0.256	1.977	-0.518
498.000	11.382	498.000	3512976372.064	1022.755	300.046	1322.800	0.227	1.977	0.037
499.000	10.792	499.000	3512976373.578	773.360	259.790	1033.149	0.251	1.977	0.037
500.000	10.792	500.000	3512976375.078	915.351	194.373	1109.725	0.175	-0.275	0.037
501.000	9.892	501.000	3512976376.570	852.925	280.411	1133.336	0.247	-0.275	0.037
502.000	9.892	502.000	3512976378.065	910.512	176.120	1086.632	0.162	-0.275	-0.713
503.000	8.512	503.000	3512976379.577	920.013	225.848	1145.861	0.197	-0.275	-0.713
504.000	8.512	504.000	3512976381.073	833.300	406.112	1239.413	0.328	-0.798	-0.713
505.000	7.029	505.000	3512976382.574	989.988	117.709	1107.697	0.106	-0.798	-0.713
506.000	7.029	506.000	3512976384.063	894.750	267.979	1162.729	0.230	-0.798	1.221
507.000	7.672	507.000	3512976385.578	1058.586	216.080	1274.666	0.170	-0.798	1.221
508.000	7.672	508.000	3512976387.074	962.016	195.064	1157.080	0.169	1.161	1.221
509.000	8.241	509.000	3512976388.575	865.668	190.230	1055.897	0.180	1.161	1.221
510.000	8.241	510.000	3512976390.076	809.724	427.622	1237.345	0.346	1.161	-0.009
511.000	7.631	511.000	3512976391.578	1092.507	176.811	1269.318	0.139	1.161	-0.009
512.000	7.631	512.000	3512976393.078	821.312	290.870	1112.182	0.262	1.547	-0.009
513.000	8.589	513.000	3512976394.575	897.414	279.819	1177.233	0.238	1.547	-0.009
514.000	8.589	514.000	3512976396.074	1043.223	210.456	1253.680	0.168	1.547	1.143
515.000	9.178	515.000	3512976397.577	893.640	364.672	1258.312	0.290	1.547	1.143
516.000	9.178	516.000	3512976399.074	1085.359	304.979	1390.338	0.219	-0.653	1.143
517.000	7.985	517.000	3512976400.575	777.711	318.891	1096.602	0.291	-0.653	1.143
518.000	7.985	518.000	3512976402.075	811.588	430.384	1241.973	0.347	-0.653	-0.659
519.000	6.664	519.000	3512976403.575	935.598	326.488	1262.086	0.259	-0.653	-0.659
520.000	6.664	520.000	3512976405.075	1071.062	381.347	1452.409	0.263	0.521	-0.659
521.000	6.612	521.000	3512976406.575	878.632	271.827	1150.459	0.236	0.521	-0.659
522.000	6.612	522.000	3512976408.065	1176.646	232.952	1409.598	0.165	0.521	0.036
523.000	6.080	523.000	3512976409.574	1000.510	310.998	1311.508	0.237	0.521	0.036
524.000	6.080	524.000	3512976411.078	1049.262	168.326	1217.587	0.138	-0.664	0.036
525.000	4.886	525.000	3512976412.578	907.759	279.030	1186.788	0.235	-0.664	0.036
526.000	4.886	526.000	3512976414.074	966.589	229.499	1196.088	0.192	-0.664	-0.925
527.000	3.352	527.000	3512976415.576	1117.016	106.264	1223.280	0.087	-0.664	-0.925
528.000	3.352	528.000	3512976417.075	882.362	396.443	1278.805	0.310	-0.404	-0.925
529.000	2.383	529.000	3512976418.574	914.197	175.035	1089.232	0.161	-0.404	-0.925
530.000	2.383	530.000	3512976420.077	913.842	272.024	1185.866	0.229	-0.404	2.086
531.000	3.995	531.000	3512976421.575	920.724	427.128	1347.852	0.317	-0.404	2.086
532.000	3.995	532.000	3512976423.075	1063.736	152.637	1216.374	0.125	0.642	2.086
533.000	4.089	533.000	3512976424.578	922.766	430.779	1353.545	0.318	0.642	2.086
534.000	4.089	534.000	3512976426.077	1012.809	347.998	1360.807	0.256	0.642	-1.790
535.000	1.752	535.000	3512976427.577	996.204	353.819	1350.023	0.262	0.642	-1.790
536.000	1.752	536.000	3512976429.075	1097.658	389.734	1487.392	0.262	-0.585	-1.790
537.000	0.626	537.000	3512976430.576	1086.691	224.763	1311.454	0.171	-0.585	-1.790
538.000	0.626	538.000	3512976432.065	1082.828	230.091	1312.919	0.175	-0.585	-0.001
539.000	0.052	539.000	3512976433.575	1258.208	268.275	1526.483	0.176	-0.585	-0.001
540.000	0.052	540.000	3512976435.075	1078.610	202.267	1280.877	0.158	0.036	-0.001
541.000	-0.474	541.000	3512976436.575	1082.296	228.512	1310.808	0.174	0.036	-0.001
542.000	-0.474	542.000	3512976438.065	910.645	396.739	1307.384	0.303	0.036	-0.167
543.000	-1.156	543.000	3512976439.577	1057.831	258.014	1315.844	0.196	0.036	-0.167
544.000	-1.156	544.000	3512976441.078	903.141	349.675	1252.816	0.279	1.207	-0.167
545.000	-0.420	545.000	3512976442.575	879.165	254.363	1133.528	0.224	1.207	-0.167
546.000	-0.420	546.000	3512976444.076	987.901	294.816	1282.717	0.230	1.207	0.776
547.000	-0.252	547.000	3512976445.577	1166.389	233.347	1399.736	0.167	1.207	0.776
548.000	-0.252	548.000	3512976447.076	987.013	381.446	1368.459	0.279	0.051	0.776
549.000	-0.699	549.000	3512976448.578	938.528	252.488	1191.016	0.212	0.051	0.776
550.000	-0.699	550.000	3512976450.077	1032.523	159.248	1191.771	0.134	0.051	1.048
551.000	-0.076	551.000	3512976451.575	904.162	427.819	1331.982	0.321	0.051	1.048
552.000	-0.076	552.000	3512976453.078	1062.227	306.459	1368.686	0.224	-0.733	1.048
553.000	-1.332	553.000	3512976454.574	908.114	379.571	1287.685	0.295	-0.733	1.048
554.000	-1.332	554.000	3512976456.066	1129.182	213.318	1342.499	0.159	-0.733	-0.910
555.000	-2.771	555.000	3512976457.577	1030.259	271.728	1301.987	0.209	-0.733	-0.910
556.000	-2.771	556.000	3512976459.078	1055.212	373.454	1428.665	0.261	-1.270	-0.910
557.000	-4.628	557.000	3512976460.574	1187.302	167.043	1354.344	0.123	-1.270	-0.910
558.000	-4.628	558.000	3512976462.065	897.103	384.504	1281.607	0.300	-1.270	0.493
559.000	-4.665	559.000	3512976463.577	974.004	369.112	1343.116	0.275	-1.270	0.493
560.000	-4.665	560.000	3512976465.078	1138.772	339.216	1477.988	0.230	1.652	0.493
561.000	-3.528	561.000	3512976466.575	961.172	266.499	1227.671	0.217	1.652	0.493
562.000	-3.528	562.000	3512976468.065	1072.661	210.555	1283.215	0.164	1.652	-0.424
563.000	-4.475	563.000	3512976469.575	1037.274	315.043	1352.317	0.233	1.652	-0.424
564.000	-4.475	564.000	3512976471.076	1128.294	302.808	1431.102	0.212	-0.495	-0.424
565.000	-5.434	565.000	3512976472.576	960.684	263.440	1224.124	0.215	-0.495	-0.424
566.000	-5.434	566.000	3512976474.066	1036.563	273.603	1310.166	0.209	-0.495	-0.200
567.000	-6.157	567.000	3512976475.575	1183.927	254.758	1438.685	0.177	-0.495	-0.200
568.000	-6.157	568.000	3512976477.079	1103.163	287.120	1390.284	0.207	-0.060	-0.200
569.000	-6.754	569.000	3512976478.577	956.199	280.115	1236.314	0.227	-0.060	-0.200
570.000	-6.754	570.000	3512976480.075	849.062	320.766	1169.828	0.274	-0.060	0.275
571.000	-7.002	571.000	3512976481.577	1066.667	179.672	1246.339	0.144	-0.060	0.275
572.000	-7.002	572.000	3512976483.076	1064.757	161.715	1226.472	0.132	0.445	0.275
573.000	-6.951	573.000	3512976484.577	954.468	224.664	1179.132	0.191	0.445	0.275
574.000	-6.951	574.000	3512976486.065	1091.753	225.454	1317.206	0.171	0.445	-0.115
575.000	-7.567	575.000	3512976487.578	1032.523	212.528	1245.051	0.171	0.445	-0.115
576.000	-7.567	576.000	3512976489.075	1110.090	348.491	1458.581	0.239	-0.181	-0.115
577.000	-8.234	577.000	3512976490.575	788.456	421.504	1209.961	0.348	-0.181	-0.115
578.000	-8.234	578.000	3512976492.068	1103.829	171.582	1275.411	0.135	-0.181	0.638
579.000	-8.063	579.000	3512976493.579	776.246	445.382	1221.628	0.365	-0.181	0.638
580.000	-8.063	580.000	3512976495.076	1027.994	52.885	1080.880	0.049	-1.999	0.638
581.000	-10.633	581.000	3512976496.581	1152.048	71.731	1223.779	0.059	-1.999	0.638
582.000	-10.633	582.000	3512976498.068	791.164	471.134	1262.298	0.373	-1.999	-2.951
583.000	-14.155	583.000	3512976499.579	1264.602	114.059	1378.661	0.083	-1.999	-2.951
584.000	-14.155	584.000	3512976501.074	778.288	511.982	1290.270	0.397	2.942	-2.951
585.000	-11.594	585.000	3512976502.574	884.138	320.075	1204.213	0.266	2.942	-2.951
586.000	-11.594	586.000	3512976504.075	973.959	141.883	1115.842	0.127	2.942	2.937
587.000	-9.137	587.000	3512976505.574	839.605	457.320	1296.925	0.353	2.942	2.937
588.000	-9.137	588.000	3512976507.074	1037.496	262.158	1299.653	0.202	-1.296	2.937
589.000	-10.922	589.000	3512976508.575	961.705	186.875	1148.580	0.163	-1.296	2.937
590.000	-10.922	590.000	3512976510.067	1079.765	267.190	1346.954	0.198	-1.296	-1.411
591.000	-12.878	591.000	3512976511.575	1047.974	189.342	1237.316	0.153	-1.296	-1.411
592.000	-12.878	592.000	3512976513.079	1014.186	141.685	1155.871	0.123	0.333	-1.411
593.000	-13.088	593.000	3512976514.581	880.187	236.702	1116.888	0.212	0.333	-1.411
594.000	-13.088	594.000	3512976516.069	889.644	168.029	1057.673	0.159	0.333	-0.285
595.000	-13.987	595.000	3512976517.579	1058.053	293.534	1351.587	0.217	0.333	-0.285
596.000	-13.987	596.000	3512976519.075	880.986	305.176	1186.162	0.257	-0.496	-0.285
597.000	-15.016	597.000	3512976520.578	952.647	241.832	1194.480	0.202	-0.496	-0.285
598.000	-15.016	598.000	3512976522.075	912.909	209.568	1122.477	0.187	-0.496	0.375
599.000	-15.207	599.000	3512976523.578	981.197	177.699	1158.895	0.153	-0.496	0.375
600.000	-15.207	600.000	3512976525.078	952.292	311.787	1264.079	0.247	-0.147	0.375
601.000	-15.920	601.000	3512976526.578	1011.255	175.429	1186.685	0.148	-0.147	0.375
602.000	-15.920	602.000	3512976528.069	812.920	244.398	1057.318	0.231	-0.147	0.873
603.000	-15.567	603.000	3512976529.575	900.433	202.267	1102.700	0.183	-0.147	0.873
604.000	-15.567	604.000	3512976531.076	907.404	233.939	1141.343	0.205	0.779	0.873
605.000	-15.282	605.000	3512976532.576	847.419	233.347	1080.766	0.216	0.779	0.873
606.000	-15.282	606.000	3512976534.072	849.817	205.918	1055.734	0.195	0.779	0.201
607.000	-15.540	607.000	3512976535.575	687.313	335.763	1023.076	0.328	0.779	0.201
608.000	-15.540	608.000	3512976537.079	1028.127	134.483	1162.610	0.116	-0.195	0.201
609.000	-16.217	609.000	3512976538.578	781.307	294.323	1075.630	0.274	-0.195	0.201
610.000	-16.217	610.000	3512976540.078	919.436	159.544	1078.980	0.148	-0.195	-1.987
611.000	-18.860	611.000	3512976541.575	1008.813	185.198	1194.011	0.155	-0.195	-1.987
612.000	-18.860	612.000	3512976543.078	631.457	452.683	1084.141	0.418	-1.176	-1.987
613.000	-20.604	613.000	3512976544.579	966.234	16.181	982.415	0.016	-1.176	-1.987
614.000	-20.604	614.000	3512976546.079	832.146	227.032	1059.178	0.214	-1.176	2.454
615.000	-18.603	615.000	3512976547.579	767.499	244.496	1011.995	0.242	-1.176	2.454
616.000	-18.603	616.000	3512976549.081	1005.839	103.699	1109.537	0.093	1.850	2.454
617.000	-17.201	617.000	3512976550.579	832.634	151.552	984.186	0.154	1.850	2.454
618.000	-17.201	618.000	3512976552.079	876.590	39.565	916.155	0.043	1.850	-1.385
619.000	-19.104	619.000	3512976553.579	741.081	180.363	921.444	0.196	1.850	-1.385
624.000	-19.900	624.000	3512976561.077	889.777	201.576	1091.353	0.185	-0.152	0.150
625.000	-20.505	625.000	3512976562.581	660.229	296.592	956.821	0.310	-0.152	0.150
626.000	-20.505	626.000	3512976564.069	844.888	193.091	1037.979	0.186	-0.152	-0.876
627.000	-21.961	627.000	3512976565.579	833.344	211.443	1044.787	0.202	-0.152	-0.876
628.000	-21.961	628.000	3512976567.079	733.000	423.971	1156.971	0.366	-1.159	-0.876
629.000	-23.686	629.000	3512976568.576	849.018	175.824	1024.842	0.172	-1.159	-0.876
630.000	-23.686	630.000	3512976570.079	730.025	281.398	1011.423	0.278	-1.159	1.534
631.000	-22.707	631.000	3512976571.579	772.028	212.726	984.754	0.216	-1.159	1.534
632.000	-22.707	632.000	3512976573.076	801.288	140.699	941.986	0.149	0.997	1.534
633.000	-22.232	633.000	3512976574.579	783.750	135.272	919.022	0.147	0.997	1.534
634.000	-22.232	634.000	3512976576.075	931.602	123.432	1055.034	0.117	0.997	-0.623
635.000	-23.402	635.000	3512976577.575	877.567	299.947	1177.514	0.255	0.997	-0.623
636.000	-23.402	636.000	3512976579.083	811.189	176.614	987.802	0.179	-0.282	-0.623
637.000	-24.186	637.000	3512976580.583	918.326	149.776	1068.102	0.140	-0.282	-0.623
638.000	-24.186	638.000	3512976582.083	914.375	169.016	1083.391	0.156	-0.282	-0.710
639.000	-25.504	639.000	3512976583.583	973.959	107.251	1081.210	0.099	-0.282	-0.710
640.000	-25.504	640.000	3512976585.082	734.066	312.280	1046.346	0.298	0.148	-0.710
641.000	-25.786	641.000	3512976586.579	853.635	242.326	1095.961	0.221	0.148	-0.710
642.000	-25.786	642.000	3512976588.069	884.893	168.720	1053.613	0.160	0.148	1.863
643.000	-24.421	643.000	3512976589.582	790.720	193.190	983.910	0.196	0.148	1.863
644.000	-24.421	644.000	3512976591.082	872.683	258.310	1130.992	0.228	-0.570	1.863
645.000	-25.524	645.000	3512976592.576	797.336	122.347	919.683	0.133	-0.570	1.863
646.000	-25.524	646.000	3512976594.067	851.904	311.491	1163.395	0.268	-0.570	0.300
647.000	-25.695	647.000	3512976595.582	811.277	293.139	1104.417	0.265	-0.570	0.300
648.000	-25.695	648.000	3512976597.076	898.524	294.027	1192.551	0.247	1.260	0.300
649.000	-24.882	649.000	3512976598.582	767.544	366.744	1134.288	0.323	1.260	0.300
650.000	-24.882	650.000	3512976600.075	759.640	160.728	920.369	0.175	1.260	-0.176
651.000	-25.550	651.000	3512976601.582	894.483	308.630	1203.113	0.257	1.260	-0.176
652.000	-25.550	652.000	3512976603.082	808.658	318.990	1127.648	0.283	-1.390	-0.176
653.000	-27.452	653.000	3512976604.582	830.680	152.440	983.120	0.155	-1.390	-0.176
654.000	-27.452	654.000	3512976606.082	614.186	257.520	871.706	0.295	-1.390	0.246
655.000	-27.677	655.000	3512976607.582	899.101	172.667	1071.768	0.161	-1.390	0.246
656.000	-27.677	656.000	3512976609.082	885.870	253.376	1139.246	0.222	1.312	0.246
657.000	-26.832	657.000	3512976610.579	831.746	283.568	1115.314	0.254	1.312	0.246
658.000	-26.832	658.000	3512976612.082	817.760	151.552	969.312	0.156	1.312	0.573
659.000	-26.732	659.000	3512976613.583	789.921	340.598	1130.519	0.301	1.312	0.573
660.000	-26.732	660.000	3512976615.082	1121.723	250.811	1372.534	0.183	-0.915	0.573
661.000	-28.154	661.000	3512976616.582	1041.581	161.912	1203.493	0.135	-0.915	0.573
662.000	-28.154	662.000	3512976618.083	791.209	269.656	1060.865	0.254	-0.915	-1.108
663.000	-29.644	663.000	3512976619.583	848.796	161.419	1010.214	0.160	-0.915	-1.108
664.000	-29.644	664.000	3512976621.082	838.761	313.366	1152.127	0.272	1.119	-1.108
665.000	-28.878	665.000	3512976622.582	914.596	347.998	1262.594	0.276	1.119	-1.108
666.000	-28.878	666.000	3512976624.073	799.867	251.304	1051.171	0.239	1.119	1.049
667.000	-28.296	667.000	3512976625.582	913.797	297.184	1210.982	0.245	1.119	1.049
668.000	-28.296	668.000	3512976627.082	978.355	257.619	1235.974	0.208	-0.342	1.049
669.000	-29.143	669.000	3512976628.582	883.516	187.960	1071.477	0.175	-0.342	1.049
670.000	-29.143	670.000	3512976630.075	772.117	338.131	1110.248	0.305	-0.342	-0.346
671.000	-29.901	671.000	3512976631.584	990.831	288.600	1279.432	0.226	-0.342	-0.346
672.000	-29.901	672.000	3512976633.082	839.605	305.275	1144.880	0.267	1.207	-0.346
673.000	-29.081	673.000	3512976634.582	790.987	290.475	1081.462	0.269	1.207	-0.346
674.000	-29.081	674.000	3512976636.082	955.045	177.008	1132.053	0.156	1.207	0.384
675.000	-29.069	675.000	3512976637.583	940.837	268.472	1209.309	0.222	1.207	0.384
676.000	-29.069	676.000	3512976639.082	1034.565	214.206	1248.771	0.172	-1.049	0.384
677.000	-30.570	677.000	3512976640.582	948.429	406.408	1354.838	0.300	-1.049	0.384
678.000	-30.570	678.000	3512976642.072	929.470	401.179	1330.650	0.301	-1.049	-0.472
679.000	-31.444	679.000	3512976643.583	843.690	297.086	1140.775	0.260	-1.049	-0.472
680.000	-31.444	680.000	3512976645.082	1036.608	342.768	1379.376	0.248	0.014	-0.472
681.000	-31.851	681.000	3512976646.583	925.208	215.784	1140.992	0.189	0.014	-0.472
682.000	-31.851	682.000	3512976648.075	902.831	282.088	1184.919	0.238	0.014	-0.112
683.000	-32.406	683.000	3512976649.584	959.485	493.630	1453.115	0.340	0.014	-0.112
684.000	-32.406	684.000	3512976651.083	909.446	344.544	1253.990	0.275	0.458	-0.112
685.000	-32.334	685.000	3512976652.583	820.735	277.747	1098.482	0.253	0.458	-0.112
686.000	-32.334	686.000	3512976654.069	917.793	288.995	1206.788	0.239	0.458	-0.607
687.000	-33.421	687.000	3512976655.569	1069.197	158.360	1227.557	0.129	0.458	-0.607
688.000	-33.421	688.000	3512976657.082	857.232	463.438	1320.669	0.351	-0.125	-0.607
689.000	-33.968	689.000	3512976658.568	959.352	222.987	1182.339	0.189	-0.125	-0.607
690.000	-33.968	690.000	3512976660.082	973.027	270.248	1243.275	0.217	-0.125	2.075
691.000	-32.171	691.000	3512976661.582	1010.323	300.046	1310.369	0.229	-0.125	2.075
692.000	-32.171	692.000	3512976663.083	1241.647	201.478	1443.125	0.140	0.269	2.075
693.000	-32.296	693.000	3512976664.582	1045.355	250.910	1296.264	0.194	0.269	2.075
694.000	-32.296	694.000	3512976666.084	941.592	358.950	1300.541	0.276	0.269	-0.836
695.000	-33.556	695.000	3512976667.579	789.299	425.648	1214.948	0.350	0.269	-0.836
696.000	-33.556	696.000	3512976669.082	979.554	401.179	1380.733	0.291	0.771	-0.836
697.000	-33.078	697.000	3512976670.584	869.264	415.585	1284.849	0.323	0.771	-0.836
698.000	-33.078	698.000	3512976672.084	922.944	321.358	1244.301	0.258	0.771	-0.559
699.000	-34.018	699.000	3512976673.583	1133.222	145.237	1278.460	0.114	0.771	-0.559
700.000	-34.018	700.000	3512976675.084	770.430	474.883	1245.313	0.381	-0.609	-0.559
701.000	-35.029	701.000	3512976676.575	1075.192	307.446	1382.637	0.222	-0.609	-0.559
702.000	-35.029	702.000	3512976678.083	810.700	397.331	1208.031	0.329	-0.609	2.503
703.000	-32.783	703.000	3512976679.582	676.168	521.849	1198.017	0.436	-0.609	2.503
704.000	-32.783	704.000	3512976681.083	1296.659	197.728	1494.387	0.132	0.996	2.503
705.000	-32.129	705.000	3512976682.583	896.970	245.976	1142.946	0.215	0.996	2.503
706.000	-32.129	706.000	3512976684.084	931.202	292.646	1223.848	0.239	0.996	-2.836
707.000	-35.307	707.000	3512976685.583	1270.507	262.947	1533.454	0.171	0.996	-2.836
708.000	-35.307	708.000	3512976687.083	756.310	378.979	1135.289	0.334	0.224	-2.836
709.000	-35.351	709.000	3512976688.585	876.457	349.182	1225.639	0.285	0.224	-2.836
710.000	-35.351	710.000	3512976690.085	877.567	373.552	1251.119	0.299	0.224	1.518
711.000	-34.164	711.000	3512976691.584	1140.060	313.662	1453.722	0.216	0.224	1.518
712.000	-34.164	712.000	3512976693.084	964.236	298.566	1262.801	0.236	0.128	1.518
713.000	-34.333	713.000	3512976694.584	878.899	474.489	1353.387	0.351	0.128	1.518
714.000	-34.333	714.000	3512976696.083	1129.582	357.371	1486.953	0.240	0.128	0.193
715.000	-34.419	715.000	3512976697.583	835.564	350.267	1185.831	0.295	0.128	0.193
716.000	-34.419	716.000	3512976699.083	948.474	429.102	1377.576	0.311	-1.031	0.193
717.000	-35.772	717.000	3512976700.583	976.357	481.395	1457.752	0.330	-1.031	0.193
718.000	-35.772	718.000	3512976702.076	908.647	442.323	1350.970	0.327	-1.031	0.151
719.000	-35.844	719.000	3512976703.584	975.380	355.891	1331.271	0.267	-1.031	0.151
720.000	-35.844	720.000	3512976705.075	1172.250	198.616	1370.866	0.145	-0.026	0.151
721.000	-36.192	721.000	3512976706.577	1087.002	301.822	1388.823	0.217	-0.026	0.151
722.000	-36.192	722.000	3512976708.084	892.263	295.507	1187.770	0.249	-0.026	-1.145
723.000	-37.692	723.000	3512976709.583	1151.559	296.099	1447.658	0.205	-0.026	-1.145
724.000	-37.692	724.000	3512976711.085	999.001	409.862	1408.863	0.291	0.294	-1.145
725.000	-37.671	725.000	3512976712.584	773.049	468.470	1241.519	0.377	0.294	-1.145
726.000	-37.671	726.000	3512976714.079	848.618	325.304	1173.922	0.277	0.294	0.808
727.000	-37.185	727.000	3512976715.585	931.868	333.987	1265.855	0.264	0.294	0.808
728.000	-37.185	728.000	3512976717.070	936.086	421.307	1357.393	0.310	-0.937	0.808
729.000	-38.492	729.000	3512976718.585	973.560	332.803	1306.363	0.255	-0.937	0.808
730.000	-38.492	730.000	3512976720.077	791.608	378.782	1170.390	0.324	-0.937	0.435
731.000	-38.340	731.000	3512976721.584	992.075	394.568	1386.643	0.285	-0.937	0.435
732.000	-38.340	732.000	3512976723.085	1138.417	277.254	1415.671	0.196	0.644	0.435
733.000	-37.961	733.000	3512976724.584	855.189	203.155	1058.344	0.192	0.644	0.435
734.000	-37.961	734.000	3512976726.079	860.606	404.731	1265.337	0.320	0.644	-0.829
735.000	-39.117	735.000	3512976727.585	1017.915	328.166	1346.081	0.244	0.644	-0.829
736.000	-39.117	736.000	3512976729.083	887.601	426.339	1313.940	0.324	1.196	-0.829
737.000	-38.179	737.000	3512976730.583	947.852	238.280	1186.132	0.201	1.196	-0.829
738.000	-38.179	738.000	3512976732.075	1051.571	273.702	1325.272	0.207	1.196	0.754
739.000	-37.736	739.000	3512976733.583	1086.780	441.731	1528.511	0.289	1.196	0.754
740.000	-37.736	740.000	3512976735.085	876.412	475.080	1351.493	0.352	0.053	0.754
741.000	-37.882	741.000	3512976736.585	831.524	282.779	1114.303	0.254	0.053	0.754
742.000	-37.882	742.000	3512976738.081	913.797	443.704	1357.502	0.327	0.053	0.585
743.000	-37.516	743.000	3512976739.586	1052.192	380.163	1432.355	0.265	0.053	0.585
744.000	-37.516	744.000	3512976741.085	833.078	476.462	1309.540	0.364	0.683	0.585
745.000	-37.038	745.000	3512976742.584	815.673	272.123	1087.796	0.250	0.683	0.585
746.000	-37.038	746.000	3512976744.077	906.116	333.494	1239.610	0.269	0.683	0.920
747.000	-36.334	747.000	3512976745.585	740.904	564.374	1305.277	0.432	0.683	0.920
748.000	-36.334	748.000	3512976747.085	1078.078	404.632	1482.710	0.273	0.176	0.920
749.000	-36.330	749.000	3512976748.585	747.519	415.584	1163.104	0.357	0.176	0.920
750.000	-36.330	750.000	3512976750.077	1101.166	88.504	1189.670	0.074	0.176	-1.491
751.000	-38.082	751.000	3512976751.584	979.021	253.771	1232.792	0.206	0.176	-1.491
752.000	-38.082	752.000	3512976753.083	856.521	461.958	1318.479	0.350	-2.645	-1.491
753.000	-41.075	753.000	3512976754.584	867.621	251.502	1119.123	0.225	-2.645	-1.491
754.000	-41.075	754.000	3512976756.084	603.752	508.430	1112.182	0.457	-2.645	1.351
755.000	-39.929	755.000	3512976757.580	807.060	501.128	1308.188	0.383	-2.645	1.351
756.000	-39.929	756.000	3512976759.079	871.395	401.475	1272.870	0.315	2.173	1.351
757.000	-37.941	757.000	3512976760.579	858.253	265.611	1123.864	0.236	2.173	1.351
758.000	-37.941	758.000	3512976762.079	936.131	194.078	1130.208	0.172	2.173	-0.633
759.000	-38.778	759.000	3512976763.579	921.745	406.112	1327.857	0.306	2.173	-0.633
760.000	-38.778	760.000	3512976765.085	1037.585	295.803	1333.388	0.222	-0.604	-0.633
761.000	-39.585	761.000	3512976766.577	860.517	310.504	1171.021	0.265	-0.604	-0.633
762.000	-39.585	762.000	3512976768.085	650.061	443.112	1093.173	0.405	-0.604	-0.785
763.000	-40.599	763.000	3512976769.585	898.746	273.899	1172.645	0.234	-0.604	-0.785
764.000	-40.599	764.000	3512976771.085	776.823	432.950	1209.773	0.358	1.311	-0.785
765.000	-39.438	765.000	3512976772.579	778.111	453.374	1231.484	0.368	1.311	-0.785
766.000	-39.438	766.000	3512976774.079	1043.224	166.056	1209.280	0.137	1.311	1.162
767.000	-38.405	767.000	3512976775.584	759.729	527.374	1287.103	0.410	1.311	1.162
768.000	-38.405	768.000	3512976777.079	887.512	270.939	1158.451	0.234	-2.158	1.162
769.000	-40.802	769.000	3512976778.579	861.716	188.848	1050.564	0.180	-2.158	1.162
770.000	-40.802	770.000	3512976780.079	808.614	410.552	1219.166	0.337	-2.158	-1.644
771.000	-42.744	771.000	3512976781.579	949.539	401.672	1351.212	0.297	-2.158	-1.644
772.000	-42.744	772.000	3512976783.079	708.625	332.211	1040.836	0.319	1.468	-1.644
773.000	-41.446	773.000	3512976784.585	636.474	452.683	1089.158	0.416	1.468	-1.644
774.000	-41.446	774.000	3512976786.086	902.253	140.205	1042.459	0.134	1.468	0.205
775.000	-41.488	775.000	3512976787.581	812.166	333.888	1146.054	0.291	1.468	0.205
776.000	-41.488	776.000	3512976789.086	1019.469	412.427	1431.897	0.288	-2.629	0.205
777.000	-44.445	777.000	3512976790.579	856.654	324.022	1180.676	0.274	-2.629	0.205
778.000	-44.445	778.000	3512976792.085	723.055	471.331	1194.386	0.395	-2.629	-0.031
779.000	-44.688	779.000	3512976793.579	695.127	411.144	1106.271	0.372	-2.629	-0.031
780.000	-44.688	780.000	3512976795.081	644.156	482.184	1126.340	0.428	1.124	-0.031
781.000	-43.808	781.000	3512976796.579	883.516	299.651	1183.167	0.253	1.124	-0.031
782.000	-43.808	782.000	3512976798.079	780.153	339.512	1119.665	0.303	1.124	0.528
783.000	-43.582	783.000	3512976799.584	840.670	177.501	1018.172	0.174	1.124	0.528
784.000	-43.582	784.000	3512976801.077	734.332	277.254	1011.586	0.274	0.467	0.528
785.000	-43.377	785.000	3512976802.581	931.335	241.832	1173.167	0.206	0.467	0.528
786.000	-43.377	786.000	3512976804.081	865.401	396.640	1262.042	0.314	0.467	0.933
787.000	-42.560	787.000	3512976805.582	829.082	375.822	1204.904	0.312	0.467	0.933
788.000	-42.560	788.000	3512976807.082	868.287	213.811	1082.098	0.198	1.011	0.933
789.000	-41.768	789.000	3512976808.581	672.261	418.544	1090.805	0.384	1.011	0.933
790.000	-41.768	790.000	3512976810.083	856.521	226.440	1082.961	0.209	1.011	-1.069
791.000	-43.070	791.000	3512976811.583	896.748	217.758	1114.505	0.195	1.011	-1.069
792.000	-43.070	792.000	3512976813.081	730.203	300.243	1030.446	0.291	-1.633	-1.069
793.000	-45.008	793.000	3512976814.581	812.920	244.003	1056.923	0.231	-1.633	-1.069
794.000	-45.008	794.000	3512976816.079	715.151	317.214	1032.365	0.307	-1.633	0.897
795.000	-44.304	795.000	3512976817.581	625.863	225.651	851.514	0.265	-1.633	0.897
796.000	-44.304	796.000	3512976819.081	1064.846	280.904	1345.751	0.209	0.714	0.897
797.000	-43.807	797.000	3512976820.579	860.784	107.448	968.232	0.111	0.714	0.897
798.000	-43.807	798.000	3512976822.081	746.232	336.158	1082.389	0.311	0.714	-0.526
799.000	-44.556	799.000	3512976823.582	944.833	278.339	1223.172	0.228	0.714	-0.526
800.000	-44.556	800.000	3512976825.084	931.468	45.584	977.052	0.047	1.866	-0.526
801.000	-42.808	801.000	3512976826.586	530.625	346.222	876.847	0.395	1.866	-0.526
802.000	-42.808	802.000	3512976828.084	852.037	208.779	1060.816	0.197	1.866	-1.691
803.000	-44.750	803.000	3512976829.584	840.759	147.211	987.970	0.149	1.866	-1.691
804.000	-44.750	804.000	3512976831.081	564.946	379.374	944.320	0.402	-1.852	-1.691
805.000	-46.816	805.000	3512976832.583	833.522	265.710	1099.232	0.242	-1.852	-1.691
806.000	-46.816	806.000	3512976834.084	749.473	387.464	1136.937	0.341	-1.852	2.363
807.000	-44.621	807.000	3512976835.584	868.998	232.558	1101.555	0.211	-1.852	2.363
808.000	-44.621	808.000	3512976837.081	783.439	194.275	977.714	0.199	0.926	2.363
809.000	-43.813	809.000	3512976838.581	581.152	346.419	927.571	0.373	0.926	2.363
810.000	-43.813	810.000	3512976840.081	881.652	193.486	1075.137	0.180	0.926	-0.116
811.000	-44.117	811.000	3512976841.580	623.288	375.328	998.616	0.376	0.926	-0.116
812.000	-44.117	812.000	3512976843.081	844.667	288.699	1133.365	0.255	-1.809	-0.116
813.000	-46.155	813.000	3512976844.586	729.670	164.872	894.542	0.184	-1.809	-0.116
814.000	-46.155	814.000	3512976846.086	701.210	337.638	1038.848	0.325	-1.809	-1.132
815.000	-47.485	815.000	3512976847.584	787.435	335.862	1123.296	0.299	-1.809	-1.132
816.000	-47.485	816.000	3512976849.081	801.776	326.883	1128.659	0.290	1.316	-1.132
817.000	-46.391	817.000	3512976850.581	862.293	165.365	1027.659	0.161	1.316	-1.132
818.000	-46.391	818.000	3512976852.082	1026.662	68.573	1095.236	0.063	1.316	-0.088
819.000	-46.712	819.000	3512976853.581	882.407	147.803	1030.209	0.143	1.316	-0.088
820.000	-46.712	820.000	3512976855.081	808.169	141.784	949.954	0.149	-0.919	-0.088
821.000	-47.899	821.000	3512976856.584	799.822	215.094	1014.916	0.212	-0.919	-0.088
822.000	-47.899	822.000	3512976858.083	699.345	376.414	1075.759	0.350	-0.919	0.054
823.000	-48.100	823.000	3512976859.582	663.514	423.280	1086.795	0.389	-0.919	0.054
824.000	-48.100	824.000	3512976861.084	764.436	194.867	959.302	0.203	1.290	0.054
825.000	-47.052	825.000	3512976862.584	565.834	472.515	1038.349	0.455	1.290	0.054
826.000	-47.052	826.000	3512976864.084	904.518	40.059	944.576	0.042	1.290	-1.742
827.000	-49.185	827.000	3512976865.581	987.901	212.726	1200.626	0.177	1.290	-1.742
828.000	-49.185	828.000	3512976867.086	649.662	396.344	1046.006	0.379	-3.858	-1.742
829.000	-53.488	829.000	3512976868.586	956.688	40.651	997.338	0.041	-3.858	-1.742
830.000	-53.488	830.000	3512976870.086	509.979	388.352	898.331	0.432	-3.858	1.886
831.000	-51.832	831.000	3512976871.586	787.923	401.376	1189.300	0.337	-3.858	1.886
832.000	-51.832	832.000	3512976873.086	780.064	288.896	1068.961	0.270	3.661	1.886
833.000	-48.315	833.000	3512976874.581	793.118	199.702	992.819	0.201	3.661	1.886
834.000	-48.315	834.000	3512976876.082	845.377	201.576	1046.953	0.193	3.661	-0.629
835.000	-49.271	835.000	3512976877.586	992.918	329.448	1322.366	0.249	3.661	-0.629
836.000	-49.271	836.000	3512976879.083	845.643	187.270	1032.913	0.181	-0.081	-0.629
837.000	-49.597	837.000	3512976880.586	651.482	328.955	980.437	0.336	-0.081	-0.629
838.000	-49.597	838.000	3512976882.086	805.017	111.395	916.412	0.122	-0.081	-0.634
839.000	-50.566	839.000	3512976883.586	1042.424	140.403	1182.827	0.119	-0.081	-0.634
840.000	-50.566	840.000	3512976885.081	732.690	401.179	1133.869	0.354	-2.001	-0.634
841.000	-52.885	841.000	3512976886.581	1014.186	185.197	1199.383	0.154	-2.001	-0.634
842.000	-52.885	842.000	3512976888.081	652.414	260.283	912.697	0.285	-2.001	2.198
843.000	-50.878	843.000	3512976889.586	740.948	237.491	978.439	0.243	-2.001	2.198
844.000	-50.878	844.000	3512976891.086	980.797	7.795	988.592	0.008	1.223	2.198
845.000	-49.984	845.000	3512976892.584	882.584	275.379	1157.963	0.238	1.223	2.198
846.000	-49.984	846.000	3512976894.085	752.581	302.611	1055.192	0.287	1.223	-2.196
847.000	-52.537	847.000	3512976895.588	959.263	259.790	1219.052	0.213	1.223	-2.196
848.000	-52.537	848.000	3512976897.087	800.710	415.880	1216.591	0.342	0.458	-2.196
849.000	-52.286	849.000	3512976898.586	538.972	306.558	845.530	0.363	0.458	-2.196
850.000	-52.286	850.000	3512976900.086	882.939	95.312	978.251	0.097	0.458	1.204
851.000	-51.309	851.000	3512976901.586	800.400	363.883	1164.283	0.313	0.458	1.204
852.000	-51.309	852.000	3512976903.086	795.516	275.478	1070.993	0.257	-2.479	1.204
853.000	-54.191	853.000	3512976904.586	975.025	153.427	1128.452	0.136	-2.479	1.204
854.000	-54.191	854.000	3512976906.086	757.287	305.966	1063.253	0.288	-2.479	-0.517
855.000	-54.967	855.000	3512976907.586	896.481	180.462	1076.943	0.168	-2.479	-0.517
856.000	-54.967	856.000	3512976909.086	974.980	207.003	1181.983	0.175	1.419	-0.517
857.000	-53.760	857.000	3512976910.582	786.414	207.792	994.206	0.209	1.419	-0.517
858.000	-53.760	858.000	3512976912.085	800.666	159.347	960.013	0.166	1.419	0.071
859.000	-53.944	859.000	3512976913.586	697.569	229.400	926.969	0.247	1.419	0.071
860.000	-53.944	860.000	3512976915.088	844.888	211.640	1056.528	0.200	-0.402	0.071
861.000	-54.628	861.000	3512976916.586	905.717	225.059	1130.776	0.199	-0.402	0.071
862.000	-54.628	862.000	3512976918.088	677.811	471.232	1149.043	0.410	-0.402	-0.441
863.000	-55.374	863.000	3512976919.588	916.772	248.739	1165.511	0.213	-0.402	-0.441
864.000	-55.374	864.000	3512976921.086	954.024	308.728	1262.752	0.244	1.974	-0.441
865.000	-53.609	865.000	3512976922.584	872.461	315.240	1187.701	0.265	1.974	-0.441
866.000	-53.609	866.000	3512976924.084	1041.669	47.656	1089.325	0.044	1.974	0.291
867.000	-53.657	867.000	3512976925.584	958.908	281.299	1240.207	0.227	1.974	0.291
868.000	-53.657	868.000	3512976927.086	849.861	308.136	1157.997	0.266	-2.073	0.291
869.000	-56.089	869.000	3512976928.585	876.590	351.846	1228.436	0.286	-2.073	0.291
870.000	-56.089	870.000	3512976930.086	724.875	235.616	960.491	0.245	-2.073	0.367
871.000	-55.999	871.000	3512976931.590	677.367	405.224	1082.591	0.374	-2.073	0.367
872.000	-55.999	872.000	3512976933.086	867.621	312.083	1179.704	0.265	-0.384	0.367
873.000	-56.688	873.000	3512976934.584	932.179	193.091	1125.270	0.172	-0.384	0.367
874.000	-56.688	874.000	3512976936.086	654.368	359.739	1014.107	0.355	-0.384	-1.026
875.000	-58.090	875.000	3512976937.586	1015.163	174.936	1190.099	0.147	-0.384	-1.026
876.000	-58.090	876.000	3512976939.086	793.651	306.262	1099.913	0.278	1.712	-1.026
877.000	-56.633	877.000	3512976940.586	790.898	258.112	1049.010	0.246	1.712	-1.026
878.000	-56.633	878.000	3512976942.086	933.911	203.648	1137.559	0.179	1.712	1.229
879.000	-55.700	879.000	3512976943.588	862.737	499.353	1362.090	0.367	1.712	1.229
880.000	-55.700	880.000	3512976945.084	882.939	304.387	1187.326	0.256	-0.627	1.229
881.000	-56.709	881.000	3512976946.587	793.296	331.619	1124.915	0.295	-0.627	1.229
882.000	-56.709	882.000	3512976948.086	780.641	293.928	1074.570	0.274	-0.627	-1.031
883.000	-58.007	883.000	3512976949.586	871.484	307.840	1179.324	0.261	-0.627	-1.031
884.000	-58.007	884.000	3512976951.086	731.047	442.323	1173.370	0.377	-0.199	-1.031
885.000	-58.518	885.000	3512976952.586	833.433	277.352	1110.786	0.250	-0.199	-1.031
886.000	-58.518	886.000	3512976954.088	898.302	311.886	1210.187	0.258	-0.199	1.084
887.000	-57.766	887.000	3512976955.590	667.244	475.278	1142.522	0.416	-0.199	1.084
888.000	-57.766	888.000	3512976957.086	941.103	358.062	1299.165	0.276	0.075	1.084
889.000	-58.050	889.000	3512976958.586	914.952	339.019	1253.971	0.270	0.075	1.084
890.000	-58.050	890.000	3512976960.088	691.131	367.830	1058.961	0.347	0.075	-1.313
891.000	-59.763	891.000	3512976961.589	1155.689	189.144	1344.833	0.141	0.075	-1.313
892.000	-59.763	892.000	3512976963.089	905.938	483.072	1389.011	0.348	0.720	-1.313
893.000	-59.288	893.000	3512976964.589	695.660	259.592	955.252	0.272	0.720	-1.313
894.000	-59.288	894.000	3512976966.090	923.077	168.523	1091.600	0.154	0.720	1.937
895.000	-57.609	895.000	3512976967.590	822.777	269.656	1092.433	0.247	0.720	1.937
896.000	-57.609	896.000	3512976969.088	1162.660	221.112	1383.772	0.160	-1.097	1.937
897.000	-59.073	897.000	3512976970.588	922.677	233.840	1156.518	0.202	-1.097	1.937
898.000	-59.073	898.000	3512976972.088	800.444	292.448	1092.892	0.268	-1.097	-0.814
899.000	-60.183	899.000	3512976973.588	843.823	344.248	1188.071	0.290	-1.097	-0.814
900.000	-60.183	900.000	3512976975.088	830.680	319.878	1150.558	0.278	0.611	-0.814
901.000	-59.869	901.000	3512976976.588	894.794	233.643	1128.437	0.207	0.611	-0.814
902.000	-59.869	902.000	3512976978.088	845.377	408.480	1253.857	0.326	0.611	-0.110
903.000	-60.287	903.000	3512976979.588	909.446	247.851	1157.297	0.214	0.611	-0.110
904.000	-60.287	904.000	3512976981.089	714.708	397.923	1112.631	0.358	1.110	-0.110
905.000	-59.484	905.000	3512976982.590	771.007	290.672	1061.679	0.274	1.110	-0.110
906.000	-59.484	906.000	3512976984.088	974.314	283.174	1257.488	0.225	1.110	1.342
907.000	-58.299	907.000	3512976985.590	988.212	273.800	1262.012	0.217	1.110	1.342
908.000	-58.299	908.000	3512976987.090	869.042	218.942	1087.984	0.201	-0.454	1.342
909.000	-58.894	909.000	3512976988.588	681.807	372.270	1054.077	0.353	-0.454	1.342
910.000	-58.894	910.000	3512976990.088	882.939	326.587	1209.526	0.270	-0.454	-0.147
911.000	-59.288	911.000	3512976991.590	793.962	351.352	1145.314	0.307	-0.454	-0.147
912.000	-59.288	912.000	3512976993.088	1018.004	255.152	1273.156	0.200	-0.778	-0.147
913.000	-60.413	913.000	3512976994.588	960.595	225.848	1186.443	0.190	-0.778	-0.147
914.000	-60.413	914.000	3512976996.088	929.026	149.283	1078.309	0.138	-0.778	-0.995
915.000	-61.673	915.000	3512976997.588	939.283	417.064	1356.347	0.307	-0.778	-0.995
916.000	-61.673	916.000	3512976999.087	987.901	331.619	1319.520	0.251	-0.485	-0.995
917.000	-62.536	917.000	3512977000.590	1031.768	219.830	1251.598	0.176	-0.485	-0.995
918.000	-62.536	918.000	3512977002.090	833.655	366.350	1200.005	0.305	-0.485	-0.525
919.000	-63.318	919.000	3512977003.591	988.212	201.971	1190.183	0.170	-0.485	-0.525
920.000	-63.318	920.000	3512977005.090	896.570	310.603	1207.173	0.257	1.212	-0.525
921.000	-62.330	921.000	3512977006.588	1017.471	341.387	1358.858	0.251	1.212	-0.525
922.000	-62.330	922.000	3512977008.088	912.465	267.979	1180.444	0.227	1.212	0.819
923.000	-61.833	923.000	3512977009.588	812.832	407.592	1220.424	0.334	1.212	0.819
924.000	-61.833	924.000	3512977011.090	794.494	384.406	1178.900	0.326	-0.226	0.819
925.000	-62.351	925.000	3512977012.588	766.300	273.307	1039.607	0.263	-0.226	0.819
926.000	-62.351	926.000	3512977014.088	696.281	300.934	997.215	0.302	-0.226	-0.074
927.000	-62.647	927.000	3512977015.589	1020.713	325.008	1345.721	0.242	-0.226	-0.074
928.000	-62.647	928.000	3512977017.087	878.544	290.672	1169.216	0.249	0.364	-0.074
929.000	-62.578	929.000	3512977018.590	983.195	348.491	1331.686	0.262	0.364	-0.074
930.000	-62.578	930.000	3512977020.090	875.480	324.022	1199.502	0.270	0.364	0.066
931.000	-62.784	931.000	3512977021.588	1005.128	211.542	1216.670	0.174	0.364	0.066
932.000	-62.784	932.000	3512977023.091	772.871	467.384	1240.256	0.377	0.079	0.066
933.000	-62.877	933.000	3512977024.590	895.904	321.851	1217.755	0.264	0.079	0.066
934.000	-62.877	934.000	3512977026.091	981.596	204.832	1186.428	0.173	0.079	1.898
935.000	-61.133	935.000	3512977027.591	717.327	573.846	1291.173	0.444	0.079	1.898
936.000	-61.133	936.000	3512977029.088	1152.270	157.768	1310.038	0.120	-0.857	1.898
937.000	-62.263	937.000	3512977030.588	908.114	242.326	1150.440	0.211	-0.857	1.898
938.000	-62.263	938.000	3512977032.088	874.414	231.670	1106.084	0.209	-0.857	-3.029
939.000	-65.596	939.000	3512977033.591	1016.850	259.296	1276.146	0.203	-0.857	-3.029
940.000	-65.596	940.000	3512977035.091	758.575	430.088	1188.663	0.362	-0.011	-3.029
941.000	-65.864	941.000	3512977036.591	974.537	119.979	1094.515	0.110	-0.011	-3.029
942.000	-65.864	942.000	3512977038.090	827.750	329.744	1157.494	0.285	-0.011	1.483
943.000	-64.591	943.000	3512977039.590	777.134	401.672	1178.806	0.341	-0.011	1.483
944.000	-64.591	944.000	3512977041.088	1084.560	285.344	1369.904	0.208	1.639	1.483
945.000	-63.225	945.000	3512977042.588	733.977	327.278	1061.255	0.308	1.639	1.483
946.000	-63.225	946.000	3512977044.088	1094.727	162.011	1256.738	0.129	1.639	-1.238
947.000	-64.745	947.000	3512977045.590	926.629	300.539	1227.168	0.245	1.639	-1.238
948.000	-64.745	948.000	3512977047.090	988.833	398.712	1387.546	0.287	-1.678	-1.238
949.000	-66.679	949.000	3512977048.590	876.235	188.552	1064.787	0.177	-1.678	-1.238
950.000	-66.679	950.000	3512977050.091	778.022	384.110	1162.132	0.331	-1.678	0.397
951.000	-66.559	951.000	3512977051.592	798.002	402.166	1200.168	0.335	-1.678	0.397
952.000	-66.559	952.000	3512977053.091	923.965	261.960	1185.925	0.221	1.435	0.397
953.000	-65.284	953.000	3512977054.591	710.978	345.630	1056.608	0.327	1.435	0.397
954.000	-65.284	954.000	3512977056.091	1060.095	161.320	1221.416	0.132	1.435	-1.068
955.000	-66.631	955.000	3512977057.591	1063.070	281.200	1344.270	0.209	1.435	-1.068
956.000	-66.631	956.000	3512977059.090	802.886	309.320	1112.206	0.278	-1.824	-1.068
957.000	-68.784	957.000	3512977060.591	990.831	250.811	1241.642	0.202	-1.824	-1.068
958.000	-68.784	958.000	3512977062.090	1078.344	156.781	1235.125	0.127	-1.824	0.644
959.000	-68.444	959.000	3512977063.591	935.553	371.382	1306.935	0.284	-1.824	0.644
960.000	-68.444	960.000	3512977065.088	758.442	337.046	1095.487	0.308	-0.702	0.644
961.000	-69.482	961.000	3512977066.590	985.947	144.941	1130.889	0.128	-0.702	0.644
962.000	-69.482	962.000	3512977068.091	839.782	332.211	1171.993	0.283	-0.702	0.220
963.000	-69.504	963.000	3512977069.592	960.328	491.854	1452.182	0.339	-0.702	0.220
964.000	-69.504	964.000	3512977071.091	998.069	352.931	1351.000	0.261	1.452	0.220
965.000	-68.304	965.000	3512977072.591	844.888	264.230	1109.118	0.238	1.452	0.220
966.000	-68.304	966.000	3512977074.091	846.620	277.451	1124.071	0.247	1.452	-0.724
967.000	-69.359	967.000	3512977075.591	1037.229	123.235	1160.464	0.106	1.452	-0.724
968.000	-69.359	968.000	3512977077.091	705.650	540.201	1245.851	0.434	0.080	-0.724
969.000	-69.527	969.000	3512977078.591	875.524	306.755	1182.279	0.259	0.080	-0.724
970.000	-69.527	970.000	3512977080.091	889.422	267.190	1156.611	0.231	0.080	3.061
971.000	-66.578	971.000	3512977081.590	619.603	555.593	1175.195	0.473	0.080	3.061
972.000	-66.578	972.000	3512977083.090	1086.558	168.029	1254.587	0.134	-0.266	3.061
973.000	-67.136	973.000	3512977084.590	931.912	365.067	1296.979	0.281	-0.266	3.061
974.000	-67.136	974.000	3512977086.093	699.034	359.739	1058.773	0.340	-0.266	-3.168
975.000	-70.658	975.000	3512977087.593	1142.813	136.555	1279.367	0.107	-0.266	-3.168
976.000	-70.658	976.000	3512977089.091	702.897	529.051	1231.948	0.429	0.545	-3.168
977.000	-70.325	977.000	3512977090.591	868.953	216.672	1085.625	0.200	0.545	-3.168
978.000	-70.325	978.000	3512977092.092	853.591	278.142	1131.732	0.246	0.545	3.017
979.000	-67.474	979.000	3512977093.591	748.896	460.971	1209.867	0.381	0.545	3.017
980.000	-67.474	980.000	3512977095.091	870.063	243.214	1113.277	0.218	0.432	3.017
981.000	-67.256	981.000	3512977096.591	765.190	150.072	915.263	0.164	0.432	3.017
982.000	-67.256	982.000	3512977098.092	781.308	337.440	1118.748	0.302	0.432	-1.520
983.000	-69.006	983.000	3512977099.592	918.992	191.808	1110.800	0.173	0.432	-1.520
984.000	-69.006	984.000	3512977101.090	807.770	282.779	1090.549	0.259	1.287	-1.520
985.000	-67.920	985.000	3512977102.591	869.042	227.131	1096.173	0.207	1.287	-1.520
986.000	-67.920	986.000	3512977104.091	939.061	186.382	1125.443	0.166	1.287	0.810
987.000	-67.363	987.000	3512977105.591	1027.506	252.784	1280.290	0.197	1.287	0.810
988.000	-67.363	988.000	3512977107.091	729.848	433.542	1163.390	0.373	-0.389	0.810
989.000	-67.944	989.000	3512977108.591	666.223	428.115	1094.338	0.391	-0.389	0.810
990.000	-67.944	990.000	3512977110.092	877.700	239.366	1117.066	0.214	-0.389	1.638
991.000	-66.474	991.000	3512977111.593	674.570	374.440	1049.010	0.357	-0.389	1.638
992.000	-66.474	992.000	3512977113.091	1037.096	90.083	1127.179	0.080	-1.654	1.638
993.000	-68.367	993.000	3512977114.592	1048.418	158.656	1207.074	0.131	-1.654	1.638
994.000	-68.367	994.000	3512977116.092	710.090	271.926	982.016	0.277	-1.654	-2.590
995.000	-71.201	995.000	3512977117.591	986.835	311.787	1298.622	0.240	-1.654	-2.590
996.000	-71.201	996.000	3512977119.092	821.046	324.022	1145.067	0.283	1.360	-2.590
997.000	-69.982	997.000	3512977120.593	880.142	285.739	1165.881	0.245	1.360	-2.590
998.000	-69.982	998.000	3512977122.093	800.622	132.805	933.427	0.142	1.360	0.401
999.000	-69.778	999.000	3512977123.593	912.776	191.118	1103.894	0.173	1.360	0.401
1000.000	-69.778	1000.000	3512977125.091	730.203	314.451	1044.654	0.301	-0.961	0.401
1001.000	-70.977	1001.000	3512977126.592	888.179	171.384	1059.563	0.162	-0.961	0.401
1002.000	-70.977	1002.000	3512977128.091	728.383	299.651	1028.034	0.291	-0.961	1.196
1003.000	-69.957	1003.000	3512977129.592	900.966	261.467	1162.433	0.225	-0.961	1.196
1004.000	-69.957	1004.000	3512977131.091	784.771	237.491	1022.262	0.232	1.213	1.196
1005.000	-68.910	1005.000	3512977132.592	873.882	337.934	1211.815	0.279	1.213	1.196
1006.000	-68.910	1006.000	3512977134.092	893.862	282.483	1176.345	0.240	1.213	0.069
1007.000	-69.002	1007.000	3512977135.592	804.840	297.086	1101.925	0.270	1.213	0.069
1008.000	-69.002	1008.000	3512977137.092	844.356	274.096	1118.452	0.245	-0.362	0.069
1009.000	-69.560	1009.000	3512977138.593	725.408	146.224	871.632	0.168	-0.362	0.069
1010.000	-69.560	1010.000	3512977140.093	798.624	260.678	1059.301	0.246	-0.362	-0.229
1011.000	-69.962	1011.000	3512977141.593	805.106	245.187	1050.293	0.233	-0.362	-0.229
1012.000	-69.962	1012.000	3512977143.092	761.416	305.670	1067.086	0.286	0.732	-0.229
1013.000	-69.388	1013.000	3512977144.592	710.489	290.968	1001.458	0.291	0.732	-0.229
1014.000	-69.388	1014.000	3512977146.092	739.749	215.192	954.941	0.225	0.732	0.496
1015.000	-69.130	1015.000	3512977147.592	669.508	421.307	1090.815	0.386	0.732	0.496
1016.000	-69.130	1016.000	3512977149.092	759.019	319.680	1078.699	0.296	-0.610	0.496
1017.000	-69.886	1017.000	3512977150.591	780.864	100.640	881.504	0.114	-0.610	0.496
1018.000	-69.886	1018.000	3512977152.092	766.433	240.846	1007.279	0.239	-0.610	-0.840
1019.000	-70.858	1019.000	3512977153.591	737.973	112.480	850.453	0.132	-0.610	-0.840
1020.000	-70.858	1020.000	3512977155.093	756.310	213.120	969.431	0.220	1.168	-0.840
1021.000	-69.771	1021.000	3512977156.594	648.996	281.990	930.985	0.303	1.168	-0.840
1022.000	-69.771	1022.000	3512977158.093	722.122	279.720	1001.843	0.279	1.168	0.819
1023.000	-69.109	1023.000	3512977159.594	769.630	333.099	1102.729	0.302	1.168	0.819
1024.000	-69.109	1024.000	3512977161.092	620.446	384.603	1005.049	0.383	-0.221	0.819
1025.000	-69.495	1025.000	3512977162.592	753.868	257.816	1011.685	0.255	-0.221	0.819
1026.000	-69.495	1026.000	3512977164.093	822.466	233.544	1056.010	0.221	-0.221	0.754
1027.000	-68.796	1027.000	3512977165.592	690.376	309.222	999.598	0.309	-0.221	0.754
1028.000	-68.796	1028.000	3512977167.092	876.901	225.256	1102.157	0.204	-0.315	0.754
1029.000	-69.202	1029.000	3512977168.593	569.653	301.723	871.376	0.346	-0.315	0.754
1030.000	-69.202	1030.000	3512977170.092	646.509	276.760	923.269	0.300	-0.315	-0.981
1031.000	-70.296	1031.000	3512977171.593	737.529	286.035	1023.564	0.279	-0.315	-0.981
1032.000	-70.296	1032.000	3512977173.092	619.869	310.011	929.880	0.333	-0.435	-0.981
1033.000	-70.907	1033.000	3512977174.593	767.854	230.979	998.833	0.231	-0.435	-0.981
1034.000	-70.907	1034.000	3512977176.092	705.517	260.480	965.997	0.270	-0.435	0.504
1035.000	-70.428	1035.000	3512977177.593	738.328	210.950	949.278	0.222	-0.435	0.504
1036.000	-70.428	1036.000	3512977179.094	864.691	299.552	1164.243	0.257	0.359	0.504
1037.000	-70.137	1037.000	3512977180.594	700.944	308.630	1009.573	0.306	0.359	0.504
1038.000	-70.137	1038.000	3512977182.094	688.867	201.182	890.048	0.226	0.359	0.328
1039.000	-69.837	1039.000	3512977183.593	605.217	378.683	983.900	0.385	0.359	0.328
1040.000	-69.837	1040.000	3512977185.092	821.179	217.462	1038.640	0.209	-0.745	0.328
1041.000	-70.639	1041.000	3512977186.593	706.271	186.776	893.048	0.209	-0.745	0.328
1042.000	-70.639	1042.000	3512977188.093	688.023	217.560	905.583	0.240	-0.745	-1.641
1043.000	-72.388	1043.000	3512977189.593	725.319	267.683	993.002	0.270	-0.745	-1.641
1044.000	-72.388	1044.000	3512977191.094	752.092	285.936	1038.029	0.275	0.291	-1.641
1045.000	-72.198	1045.000	3512977192.594	712.443	199.800	912.243	0.219	0.291	-1.641
1046.000	-72.198	1046.000	3512977194.093	821.312	196.248	1017.560	0.193	0.291	0.055
1047.000	-72.205	1047.000	3512977195.594	802.753	228.512	1031.265	0.222	0.291	0.055
1048.000	-72.205	1048.000	3512977197.092	623.998	315.142	939.140	0.336	-0.245	0.055
1049.000	-72.560	1049.000	3512977198.592	748.185	149.085	897.271	0.166	-0.245	0.055
1050.000	-72.560	1050.000	3512977200.094	662.626	186.480	849.106	0.220	-0.245	1.066
1051.000	-71.643	1051.000	3512977201.594	792.852	255.251	1048.103	0.244	-0.245	1.066
1052.000	-71.643	1052.000	3512977208.429	760.484	345.235	1105.719	0.312	0.500	1.066
1055.000	-71.207	1055.000	3512977208.505	0.000	0.000	0.000	NaN	0.500	1.066
1056.000	-71.207	1056.000	3512977209.093	7.193	68.475	75.668	0.905	0.500	1.066
1057.000	-70.763	1057.000	3512977210.593	-30.947	-1.973	-32.920	0.060	0.500	1.066
1070.000	-74.987	1070.000	3512977230.080	637.673	341.683	979.357	0.349	-1.922	1.476
1071.000	-73.551	1071.000	3512977231.582	719.414	381.939	1101.353	0.347	-1.922	1.476
1072.000	-73.551	1072.000	3512977233.093	853.413	135.568	988.981	0.137	1.943	1.476
1073.000	-71.732	1073.000	3512977234.580	591.808	252.390	844.198	0.299	1.943	1.476
1074.000	-71.732	1074.000	3512977236.079	598.157	397.134	995.291	0.399	1.943	-1.961
1075.000	-73.862	1075.000	3512977237.579	1002.464	166.056	1168.520	0.142	1.943	-1.961
1076.000	-73.862	1076.000	3512977239.079	584.615	274.688	859.304	0.320	0.935	-1.961
1077.000	-72.918	1077.000	3512977240.581	621.157	306.952	928.109	0.331	0.935	-1.961
1078.000	-72.918	1078.000	3512977242.095	881.341	203.352	1084.693	0.187	0.935	1.660
1079.000	-71.422	1079.000	3512977243.595	720.879	275.675	996.554	0.277	0.935	1.660
1080.000	-71.422	1080.000	3512977245.094	893.240	242.819	1136.059	0.214	-1.339	1.660
1081.000	-72.875	1081.000	3512977246.595	792.940	139.515	932.455	0.150	-1.339	1.660
1082.000	-72.875	1082.000	3512977248.094	834.721	104.587	939.308	0.111	-1.339	-0.588
1083.000	-73.527	1083.000	3512977249.595	823.576	280.115	1103.691	0.254	-1.339	-0.588
1084.000	-73.527	1084.000	3512977251.094	767.988	424.662	1192.649	0.356	-0.358	-0.588
1085.000	-73.967	1085.000	3512977252.595	739.616	204.536	944.152	0.217	-0.358	-0.588
1086.000	-73.967	1086.000	3512977254.094	627.639	289.488	917.127	0.316	-0.358	0.956
1087.000	-73.037	1087.000	3512977255.595	719.591	254.856	974.448	0.262	-0.358	0.956
1088.000	-73.037	1088.000	3512977257.093	1009.346	192.696	1202.042	0.160	0.926	0.956
1089.000	-72.200	1089.000	3512977258.593	756.310	364.672	1120.983	0.325	0.926	0.956
1090.000	-72.200	1090.000	3512977260.093	704.451	121.557	826.009	0.147	0.926	-0.947
1091.000	-73.272	1091.000	3512977261.594	727.939	396.739	1124.678	0.353	0.926	-0.947
1092.000	-73.272	1092.000	3512977263.094	650.150	273.208	923.358	0.296	-1.666	-0.947
1093.000	-75.088	1093.000	3512977264.595	918.015	159.643	1077.658	0.148	-1.666	-0.947
1094.000	-75.088	1094.000	3512977266.095	626.218	382.432	1008.651	0.379	-1.666	-0.532
1095.000	-75.773	1095.000	3512977267.595	1019.469	19.536	1039.005	0.019	-1.666	-0.532
1096.000	-75.773	1096.000	3512977269.094	897.058	405.915	1302.973	0.312	2.160	-0.532
1097.000	-73.689	1097.000	3512977270.594	812.965	259.198	1072.163	0.242	2.160	-0.532
1098.000	-73.689	1098.000	3512977272.095	761.594	408.086	1169.680	0.349	2.160	2.737
1099.000	-70.957	1099.000	3512977273.594	731.801	477.152	1208.954	0.395	2.160	2.737
1100.000	-70.957	1100.000	3512977275.094	998.868	89.589	1088.457	0.082	1.002	2.737
1101.000	-69.947	1101.000	3512977276.594	768.032	246.174	1014.206	0.243	1.002	2.737
1102.000	-69.947	1102.000	3512977278.096	968.765	119.485	1088.250	0.110	1.002	-2.921
1103.000	-73.034	1103.000	3512977279.595	1129.670	120.275	1249.945	0.096	1.002	-2.921
1104.000	-73.034	1104.000	3512977281.094	686.292	464.819	1151.111	0.404	-1.243	-2.921
1105.000	-74.382	1105.000	3512977282.595	840.271	179.475	1019.746	0.176	-1.243	-2.921
1106.000	-74.382	1106.000	3512977284.094	786.014	297.875	1083.889	0.275	-1.243	2.876
1107.000	-71.483	1107.000	3512977285.595	715.818	475.080	1190.898	0.399	-1.243	2.876
1108.000	-71.483	1108.000	3512977287.095	1102.009	154.512	1256.521	0.123	0.924	2.876
1109.000	-70.608	1109.000	3512977288.595	608.902	425.648	1034.551	0.411	0.924	2.876
1110.000	-70.608	1110.000	3512977290.095	859.984	295.507	1155.491	0.256	0.924	-2.580
1111.000	-73.328	1111.000	3512977291.595	1047.397	175.824	1223.221	0.144	0.924	-2.580
1112.000	-73.328	1112.000	3512977293.094	824.597	377.302	1201.899	0.314	-1.456	-2.580
1113.000	-74.883	1113.000	3512977294.595	721.767	164.971	886.738	0.186	-1.456	-2.580
1114.000	-74.883	1114.000	3512977296.096	657.076	266.400	923.477	0.288	-1.456	1.591
1115.000	-73.389	1115.000	3512977297.595	686.069	396.739	1082.808	0.366	-1.456	1.591
1116.000	-73.389	1116.000	3512977299.095	1029.903	114.059	1143.962	0.100	0.958	1.591
1117.000	-72.462	1117.000	3512977300.595	783.572	280.214	1063.786	0.263	0.958	1.591
1118.000	-72.462	1118.000	3512977302.095	1005.084	228.710	1233.793	0.185	0.958	-2.494
1119.000	-75.130	1119.000	3512977303.595	1033.322	164.774	1198.096	0.138	0.958	-2.494
1120.000	-75.130	1120.000	3512977305.095	631.946	483.664	1115.610	0.434	-0.730	-2.494
1121.000	-75.937	1121.000	3512977306.595	738.550	373.750	1112.300	0.336	-0.730	-2.494
1122.000	-75.937	1122.000	3512977308.095	923.965	160.827	1084.792	0.148	-0.730	2.768
1123.000	-73.234	1123.000	3512977309.595	941.547	316.720	1258.268	0.252	-0.730	2.768
1124.000	-73.234	1124.000	3512977311.095	984.216	297.283	1281.499	0.232	-1.756	2.768
1125.000	-75.118	1125.000	3512977312.596	986.613	165.563	1152.176	0.144	-1.756	2.768
1126.000	-75.118	1126.000	3512977314.096	651.970	379.966	1031.936	0.368	-1.756	-0.184
1127.000	-75.395	1127.000	3512977315.595	878.410	241.043	1119.453	0.215	-1.756	-0.184
1128.000	-75.395	1128.000	3512977317.095	961.794	300.736	1262.530	0.238	2.099	-0.184
1129.000	-73.337	1129.000	3512977318.582	743.923	341.091	1085.014	0.314	2.099	-0.184
1130.000	-73.337	1130.000	3512977320.095	959.352	237.984	1197.336	0.199	2.099	0.214
1131.000	-73.126	1131.000	3512977321.595	664.935	434.134	1099.069	0.395	2.099	0.214
1132.000	-73.126	1132.000	3512977323.095	927.473	162.800	1090.273	0.149	-1.081	0.214
1133.000	-74.288	1133.000	3512977324.595	1035.143	153.624	1188.767	0.129	-1.081	0.214
1134.000	-74.288	1134.000	3512977326.095	839.960	211.739	1051.699	0.201	-1.081	-2.297
1135.000	-76.700	1135.000	3512977327.595	1226.684	148.592	1375.277	0.108	-1.081	-2.297
1136.000	-76.700	1136.000	3512977329.095	651.793	198.813	850.606	0.234	0.674	-2.297
1137.000	-76.096	1137.000	3512977330.596	830.680	289.784	1120.465	0.259	0.674	-2.297
1138.000	-76.096	1138.000	3512977332.095	910.867	413.414	1324.281	0.312	0.674	1.175
1139.000	-75.033	1139.000	3512977333.595	859.540	355.200	1214.741	0.292	0.674	1.175
1140.000	-75.033	1140.000	3512977335.095	924.853	358.851	1283.704	0.280	0.501	1.175
1141.000	-74.603	1141.000	3512977336.595	707.648	328.659	1036.307	0.317	0.501	1.175
1142.000	-74.603	1142.000	3512977338.095	993.851	180.264	1174.115	0.154	0.501	-0.120
1143.000	-75.048	1143.000	3512977339.596	999.001	346.320	1345.321	0.257	0.501	-0.120
1144.000	-75.048	1144.000	3512977341.095	688.689	433.739	1122.428	0.386	-1.530	-0.120
1145.000	-76.710	1145.000	3512977342.595	964.813	240.944	1205.757	0.200	-1.530	-0.120
1146.000	-76.710	1146.000	3512977344.095	798.845	385.590	1184.435	0.326	-1.530	1.206
1147.000	-75.512	1147.000	3512977345.595	863.448	294.126	1157.573	0.254	-1.530	1.206
1148.000	-75.512	1148.000	3512977347.095	1121.723	111.987	1233.709	0.091	1.175	1.206
1149.000	-74.317	1149.000	3512977348.596	931.513	211.936	1143.449	0.185	1.175	1.206
1150.000	-74.317	1150.000	3512977350.096	841.780	239.760	1081.541	0.222	1.175	-1.527
1151.000	-75.993	1151.000	3512977351.596	1016.406	123.235	1139.641	0.108	1.175	-1.527
1152.000	-75.993	1152.000	3512977353.095	656.099	582.923	1239.023	0.470	0.340	-1.527
1153.000	-75.701	1153.000	3512977354.595	966.855	244.299	1211.154	0.202	0.340	-1.527
1154.000	-75.701	1154.000	3512977356.095	796.093	254.264	1050.357	0.242	0.340	3.388
1155.000	-72.201	1155.000	3512977357.596	645.932	570.491	1216.423	0.469	0.340	3.388
1156.000	-72.201	1156.000	3512977359.095	1090.332	194.867	1285.199	0.152	0.377	3.388
1157.000	-71.895	1157.000	3512977360.595	1032.345	233.347	1265.692	0.184	0.377	3.388
1158.000	-71.895	1158.000	3512977362.096	867.710	191.216	1058.926	0.181	0.377	-2.967
1159.000	-74.967	1159.000	3512977363.595	975.957	281.792	1257.750	0.224	0.377	-2.967
1160.000	-74.967	1160.000	3512977365.096	823.177	360.035	1183.212	0.304	-0.035	-2.967
1161.000	-75.012	1161.000	3512977366.596	783.750	372.368	1156.118	0.322	-0.035	-2.967
1162.000	-75.012	1162.000	3512977368.096	795.560	156.683	952.243	0.165	-0.035	0.750
1163.000	-74.297	1163.000	3512977369.596	829.260	271.136	1100.396	0.246	-0.035	0.750
1164.000	-74.297	1164.000	3512977371.096	857.098	247.358	1104.456	0.224	-1.473	0.750
1165.000	-75.831	1165.000	3512977372.596	935.287	280.312	1215.599	0.231	-1.473	0.750
1166.000	-75.831	1166.000	3512977374.096	745.033	445.480	1190.513	0.374	-1.473	-0.210
1167.000	-76.133	1167.000	3512977375.596	1032.301	176.021	1208.323	0.146	-1.473	-0.210
1168.000	-76.133	1168.000	3512977377.095	645.621	423.872	1069.493	0.396	1.343	-0.210
1169.000	-74.829	1169.000	3512977378.595	972.228	254.462	1226.689	0.207	1.343	-0.210
1170.000	-74.829	1170.000	3512977380.095	915.529	359.246	1274.775	0.282	1.343	2.344
1171.000	-72.416	1171.000	3512977381.595	764.835	509.515	1274.350	0.400	1.343	2.344
1172.000	-72.416	1172.000	3512977383.096	1025.508	177.600	1203.108	0.148	0.695	2.344
1173.000	-71.639	1173.000	3512977384.596	890.088	260.776	1150.864	0.227	0.695	2.344
1174.000	-71.639	1174.000	3512977386.096	968.898	169.904	1138.802	0.149	0.695	-2.358
1175.000	-74.009	1175.000	3512977387.596	1099.256	229.104	1328.360	0.172	0.695	-2.358
1176.000	-74.009	1176.000	3512977389.096	813.764	432.752	1246.516	0.347	-0.724	-2.358
1177.000	-74.783	1177.000	3512977390.596	782.107	251.896	1034.003	0.244	-0.724	-2.358
1178.000	-74.783	1178.000	3512977392.096	714.752	322.838	1037.590	0.311	-0.724	1.633
1179.000	-73.210	1179.000	3512977393.595	923.032	370.395	1293.427	0.286	-0.724	1.633
1180.000	-73.210	1180.000	3512977395.095	907.759	139.021	1046.780	0.133	0.631	1.633
1181.000	-72.647	1181.000	3512977396.595	883.650	172.075	1055.724	0.163	0.631	1.633
1182.000	-72.647	1182.000	3512977398.095	920.946	236.603	1157.549	0.204	0.631	-1.436
1183.000	-74.072	1183.000	3512977399.596	1103.741	230.091	1333.832	0.173	0.631	-1.436
1184.000	-74.072	1184.000	3512977401.096	769.009	408.283	1177.292	0.347	0.387	-1.436
1185.000	-73.675	1185.000	3512977402.596	956.421	290.771	1247.192	0.233	0.387	-1.436
1186.000	-73.675	1186.000	3512977404.096	1008.014	279.326	1287.340	0.217	0.387	1.630
1187.000	-72.087	1187.000	3512977405.596	832.989	517.112	1350.102	0.383	0.387	1.630
1188.000	-72.087	1188.000	3512977407.096	907.315	220.422	1127.736	0.195	-0.151	1.630
1189.000	-72.277	1189.000	3512977408.596	885.559	312.971	1198.530	0.261	-0.151	1.630
1190.000	-72.277	1190.000	3512977410.096	974.670	236.998	1211.667	0.196	-0.151	-1.754
1191.000	-74.035	1191.000	3512977411.596	981.552	281.595	1263.147	0.223	-0.151	-1.754
1192.000	-74.035	1192.000	3512977413.096	825.708	424.760	1250.468	0.340	-0.613	-1.754
1193.000	-74.643	1193.000	3512977414.595	875.835	296.000	1171.836	0.253	-0.613	-1.754
1194.000	-74.643	1194.000	3512977416.095	788.323	278.536	1066.859	0.261	-0.613	1.092
1195.000	-73.574	1195.000	3512977417.597	936.175	329.942	1266.117	0.261	-0.613	1.092
1196.000	-73.574	1196.000	3512977419.096	899.944	334.382	1234.326	0.271	0.079	1.092
1197.000	-73.529	1197.000	3512977420.596	760.928	324.416	1085.344	0.299	0.079	1.092
1198.000	-73.529	1198.000	3512977422.096	816.872	277.056	1093.928	0.253	0.079	0.096
1199.000	-73.322	1199.000	3512977423.596	888.267	318.299	1206.566	0.264	0.079	0.096
1200.000	-73.322	1200.000	3512977425.096	1071.107	222.987	1294.094	0.172	-0.427	0.096
1201.000	-73.769	1201.000	3512977426.596	935.109	428.707	1363.816	0.314	-0.427	0.096
1202.000	-73.769	1202.000	3512977428.096	860.517	303.795	1164.312	0.261	-0.427	-0.855
1203.000	-74.680	1203.000	3512977429.596	959.529	325.206	1284.735	0.253	-0.427	-0.855
1204.000	-74.680	1204.000	3512977431.096	897.280	416.670	1313.950	0.317	-0.499	-0.855
1205.000	-75.133	1205.000	3512977432.596	945.632	299.848	1245.480	0.241	-0.499	-0.855
1206.000	-75.133	1206.000	3512977434.096	882.939	319.976	1202.916	0.266	-0.499	0.598
1207.000	-74.552	1207.000	3512977435.597	806.260	290.376	1096.637	0.265	-0.499	0.598
1208.000	-74.552	1208.000	3512977437.096	813.897	410.158	1224.055	0.335	0.236	0.598
1209.000	-74.354	1209.000	3512977438.596	839.383	247.062	1086.444	0.227	0.236	0.598
1210.000	-74.354	1210.000	3512977440.096	700.544	350.662	1051.206	0.334	0.236	0.657
1211.000	-73.687	1211.000	3512977441.596	740.726	478.534	1219.260	0.392	0.236	0.657
1212.000	-73.687	1212.000	3512977443.096	1006.327	267.979	1274.306	0.210	0.993	0.657
1213.000	-72.629	1213.000	3512977444.596	643.623	376.808	1020.431	0.369	0.993	0.657
1214.000	-72.629	1214.000	3512977446.096	955.755	185.987	1141.742	0.163	0.993	-1.703
1215.000	-74.292	1215.000	3512977447.596	865.756	276.168	1141.925	0.242	0.993	-1.703
1216.000	-74.292	1216.000	3512977449.096	834.277	424.662	1258.939	0.337	-1.930	-1.703
1217.000	-76.279	1217.000	3512977450.596	828.727	184.211	1012.938	0.182	-1.930	-1.703
1218.000	-76.279	1218.000	3512977452.096	677.589	370.888	1048.477	0.354	-1.930	0.893
1219.000	-75.353	1219.000	3512977453.597	853.946	305.768	1159.714	0.264	-1.930	0.893
1220.000	-75.353	1220.000	3512977455.096	927.339	343.459	1270.798	0.270	1.607	0.893
1221.000	-73.748	1221.000	3512977456.596	797.069	413.216	1210.286	0.341	1.607	0.893
1222.000	-73.748	1222.000	3512977458.096	856.610	275.379	1131.989	0.243	1.607	0.062
1223.000	-73.636	1223.000	3512977459.596	775.447	449.526	1224.972	0.367	1.607	0.062
1224.000	-73.636	1224.000	3512977461.096	957.443	213.811	1171.254	0.183	-0.918	0.062
1225.000	-74.521	1225.000	3512977462.596	654.723	412.822	1067.545	0.387	-0.918	0.062
1226.000	-74.521	1226.000	3512977464.096	821.001	235.616	1056.617	0.223	-0.918	-1.724
1227.000	-76.323	1227.000	3512977465.596	942.568	346.715	1289.283	0.269	-0.918	-1.724
1228.000	-76.323	1228.000	3512977467.096	563.037	542.766	1105.803	0.491	-1.531	-1.724
1229.000	-77.948	1229.000	3512977468.596	1033.544	118.992	1152.536	0.103	-1.531	-1.724
1230.000	-77.948	1230.000	3512977470.097	661.294	304.979	966.273	0.316	-1.531	2.075
1231.000	-75.775	1231.000	3512977471.597	653.169	371.678	1024.847	0.363	-1.531	2.075
1232.000	-75.775	1232.000	3512977473.096	915.174	222.000	1137.174	0.195	1.986	2.075
1233.000	-73.807	1233.000	3512977474.596	777.001	260.678	1037.678	0.251	1.986	2.075
1234.000	-73.807	1234.000	3512977476.096	929.737	172.075	1101.812	0.156	1.986	-1.566
1235.000	-75.509	1235.000	3512977477.596	781.663	175.923	957.586	0.184	1.986	-1.566
1236.000	-75.509	1236.000	3512977479.096	888.800	330.139	1218.939	0.271	-0.889	-1.566
1237.000	-76.477	1237.000	3512977480.596	830.680	188.651	1019.331	0.185	-0.889	-1.566
1238.000	-76.477	1238.000	3512977482.096	512.643	404.830	917.473	0.441	-0.889	0.815
1239.000	-75.623	1239.000	3512977483.596	867.088	350.859	1217.947	0.288	-0.889	0.815
1240.000	-75.623	1240.000	3512977485.096	814.164	260.974	1075.137	0.243	2.395	0.815
1241.000	-73.186	1241.000	3512977486.596	556.111	392.595	948.706	0.414	2.395	0.815
1242.000	-73.186	1242.000	3512977488.097	921.656	162.406	1084.062	0.150	2.395	-0.424
1243.000	-73.621	1243.000	3512977489.596	918.060	138.035	1056.094	0.131	2.395	-0.424
1244.000	-73.621	1244.000	3512977491.097	840.093	186.480	1026.573	0.182	-2.468	-0.424
1245.000	-76.096	1245.000	3512977492.597	793.163	327.672	1120.835	0.292	-2.468	-0.424
1246.000	-76.096	1246.000	3512977494.096	795.738	235.616	1031.354	0.228	-2.468	0.476
1247.000	-75.595	1247.000	3512977495.597	796.093	187.960	984.053	0.191	-2.468	0.476
1248.000	-75.595	1248.000	3512977497.097	977.467	150.861	1128.328	0.134	-0.597	0.476
1249.000	-76.293	1249.000	3512977498.596	782.728	184.211	966.939	0.191	-0.597	0.476
1250.000	-76.293	1250.000	3512977500.096	699.878	329.251	1029.129	0.320	-0.597	-0.536
1251.000	-76.942	1251.000	3512977501.596	767.144	347.011	1114.155	0.311	-0.597	-0.536
1252.000	-76.942	1252.000	3512977503.096	796.492	356.976	1153.469	0.309	1.210	-0.536
1253.000	-75.810	1253.000	3512977504.596	664.580	224.566	889.145	0.253	1.210	-0.536
1254.000	-75.810	1254.000	3512977506.097	792.008	239.366	1031.374	0.232	1.210	-0.018
1255.000	-75.834	1255.000	3512977507.597	987.191	204.734	1191.924	0.172	1.210	-0.018
1256.000	-75.834	1256.000	3512977509.096	758.575	324.910	1083.484	0.300	-0.191	-0.018
1257.000	-76.085	1257.000	3512977510.597	771.273	104.981	876.255	0.120	-0.191	-0.018
1258.000	-76.085	1258.000	3512977512.097	729.626	400.686	1130.312	0.354	-0.191	1.198
1259.000	-74.915	1259.000	3512977513.596	708.891	359.542	1068.433	0.337	-0.191	1.198
1260.000	-74.915	1260.000	3512977515.097	861.849	162.208	1024.057	0.158	2.194	1.198
1261.000	-72.701	1261.000	3512977516.596	612.943	308.432	921.375	0.335	2.194	1.198
1262.000	-72.701	1262.000	3512977518.097	902.209	142.968	1045.177	0.137	2.194	-1.665
1263.000	-74.404	1263.000	3512977519.596	853.102	174.048	1027.150	0.169	2.194	-1.665
1264.000	-74.404	1264.000	3512977521.096	546.032	277.944	823.976	0.337	-1.851	-1.665
1265.000	-76.344	1265.000	3512977522.597	738.817	277.155	1015.972	0.273	-1.851	-1.665
1266.000	-76.344	1266.000	3512977524.097	596.026	268.374	864.400	0.310	-1.851	1.570
1267.000	-74.817	1267.000	3512977525.597	731.224	295.507	1026.731	0.288	-1.851	1.570
1268.000	-74.817	1268.000	3512977527.097	850.039	296.888	1146.927	0.259	0.352	1.570
1269.000	-74.533	1269.000	3512977528.597	836.941	104.389	941.330	0.111	0.352	1.570
1270.000	-74.533	1270.000	3512977530.097	762.837	253.278	1016.115	0.249	0.352	-0.271
1271.000	-74.773	1271.000	3512977531.597	753.735	300.243	1053.978	0.285	0.352	-0.271
1272.000	-74.773	1272.000	3512977533.096	759.374	235.518	994.891	0.237	1.294	-0.271
1273.000	-73.453	1273.000	3512977534.596	584.793	357.272	942.065	0.379	1.294	-0.271
1274.000	-73.453	1274.000	3512977536.097	795.826	197.334	993.160	0.199	1.294	-0.450
1275.000	-73.948	1275.000	3512977537.597	813.320	240.747	1054.067	0.228	1.294	-0.450
1276.000	-73.948	1276.000	3512977539.096	765.102	358.456	1123.558	0.319	-1.688	-0.450
1277.000	-75.698	1277.000	3512977540.597	710.934	311.886	1022.819	0.305	-1.688	-0.450
1278.000	-75.698	1278.000	3512977542.097	700.189	230.584	930.773	0.248	-1.688	0.847
1279.000	-74.858	1279.000	3512977543.597	651.748	266.598	918.346	0.290	-1.688	0.847
1280.000	-74.858	1280.000	3512977545.096	831.169	86.235	917.404	0.094	-0.535	0.847
1281.000	-75.461	1281.000	3512977546.597	768.609	86.136	854.745	0.101	-0.535	0.847
1282.000	-75.461	1282.000	3512977548.096	648.285	242.523	890.808	0.272	-0.535	-1.835
1283.000	-77.359	1283.000	3512977549.597	840.093	158.459	998.552	0.159	-0.535	-1.835
1284.000	-77.359	1284.000	3512977551.097	718.481	240.155	958.636	0.251	1.603	-1.835
1285.000	-75.722	1285.000	3512977552.597	573.027	317.806	890.833	0.357	1.603	-1.835
1286.000	-75.722	1286.000	3512977554.097	840.404	236.702	1077.106	0.220	1.603	0.859
1287.000	-74.913	1287.000	3512977555.597	828.150	228.907	1057.056	0.217	1.603	0.859
1288.000	-74.913	1288.000	3512977557.096	718.837	236.307	955.143	0.247	-1.281	0.859
1289.000	-76.236	1289.000	3512977558.597	450.527	346.912	797.440	0.435	-1.281	0.859
1290.000	-76.236	1290.000	3512977560.097	755.644	212.824	968.469	0.220	-1.281	0.288
1291.000	-76.018	1291.000	3512977561.597	477.611	496.294	973.905	0.510	-1.281	0.288
1292.000	-76.018	1292.000	3512977563.097	796.404	157.965	954.369	0.166	-2.013	0.288
1293.000	-78.224	1293.000	3512977564.597	853.768	173.357	1027.126	0.169	-2.013	0.288
1294.000	-78.224	1294.000	3512977566.097	609.524	407.395	1016.919	0.401	-2.013	-3.217
1295.000	-81.590	1295.000	3512977567.597	828.505	37.000	865.505	0.043	-2.013	-3.217
1296.000	-81.590	1296.000	3512977569.096	576.091	430.187	1006.278	0.428	2.168	-3.217
1297.000	-79.423	1297.000	3512977570.596	652.459	321.654	974.112	0.330	2.168	-3.217
1298.000	-79.423	1298.000	3512977572.096	842.446	137.443	979.889	0.140	2.168	3.597
1299.000	-75.850	1299.000	3512977573.596	482.096	289.488	771.584	0.375	2.168	3.597
1300.000	-75.850	1300.000	3512977575.098	853.813	81.104	934.917	0.087	-1.776	3.597
1301.000	-77.793	1301.000	3512977576.598	822.688	144.350	967.038	0.149	-1.776	3.597
1302.000	-77.793	1302.000	3512977578.098	713.775	325.304	1039.079	0.313	-1.776	-2.697
1303.000	-80.655	1303.000	3512977579.598	834.410	301.230	1135.640	0.265	-1.776	-2.697
1304.000	-80.655	1304.000	3512977581.097	597.447	371.480	968.927	0.383	1.532	-2.697
1305.000	-79.176	1305.000	3512977582.597	685.004	331.422	1016.425	0.326	1.532	-2.697
1306.000	-79.176	1306.000	3512977584.097	774.736	201.971	976.707	0.207	1.532	1.105
1307.000	-78.106	1307.000	3512977585.597	866.289	276.859	1143.148	0.242	1.532	1.105
1308.000	-78.106	1308.000	3512977587.097	675.680	345.432	1021.112	0.338	-1.115	1.105
1309.000	-79.257	1309.000	3512977588.597	873.926	58.608	932.534	0.063	-1.115	1.105
1310.000	-79.257	1310.000	3512977590.097	678.566	266.400	944.966	0.282	-1.115	0.899
1311.000	-78.450	1311.000	3512977591.597	823.843	298.171	1122.014	0.266	-1.115	0.899
1312.000	-78.450	1312.000	3512977593.098	650.949	265.512	916.461	0.290	2.048	0.899
1313.000	-76.432	1313.000	3512977594.597	620.047	233.544	853.591	0.274	2.048	0.899
1314.000	-76.432	1314.000	3512977596.097	823.266	172.864	996.130	0.174	2.048	0.224
1315.000	-76.218	1315.000	3512977597.597	923.565	157.670	1081.235	0.146	2.048	0.224
1316.000	-76.218	1316.000	3512977599.097	885.958	162.899	1048.857	0.155	-0.936	0.224
1317.000	-77.187	1317.000	3512977600.597	708.314	333.592	1041.906	0.320	-0.936	0.224
1318.000	-77.187	1318.000	3512977602.098	713.731	304.091	1017.822	0.299	-0.936	0.089
1319.000	-77.139	1319.000	3512977603.597	685.670	295.211	980.881	0.301	-0.936	0.089
1320.000	-77.139	1320.000	3512977605.097	688.023	216.574	904.597	0.239	-0.200	0.089
1321.000	-77.500	1321.000	3512977606.597	704.052	141.587	845.638	0.167	-0.200	0.089
1322.000	-77.500	1322.000	3512977608.097	697.258	264.032	961.291	0.275	-0.200	-0.575
1323.000	-78.128	1323.000	3512977609.597	806.660	334.283	1140.943	0.293	-0.200	-0.575
1324.000	-78.128	1324.000	3512977611.098	832.945	147.013	979.958	0.150	1.003	-0.575
1325.000	-77.123	1325.000	3512977612.597	690.110	311.294	1001.403	0.311	1.003	-0.575
1326.000	-77.123	1326.000	3512977614.097	710.578	80.413	790.992	0.102	1.003	-1.337
1327.000	-78.605	1327.000	3512977615.597	850.838	280.904	1131.742	0.248	1.003	-1.337
1328.000	-78.605	1328.000	3512977617.097	673.549	278.438	951.986	0.292	-1.956	-1.337
1329.000	-80.626	1329.000	3512977618.597	902.298	107.349	1009.647	0.106	-1.956	-1.337
1330.000	-80.626	1330.000	3512977620.097	645.355	300.539	945.894	0.318	-1.956	0.414
1331.000	-80.318	1331.000	3512977621.598	970.896	109.717	1080.613	0.102	-1.956	0.414
1332.000	-80.318	1332.000	3512977623.098	656.410	338.328	994.739	0.340	1.977	0.414
1333.000	-78.366	1333.000	3512977624.597	609.613	271.334	880.946	0.308	1.977	0.414
1334.000	-78.366	1334.000	3512977626.098	762.127	134.483	896.610	0.150	1.977	2.231
1335.000	-76.128	1335.000	3512977627.598	682.651	326.291	1008.942	0.323	1.977	2.231
1336.000	-76.128	1336.000	3512977629.097	938.750	135.963	1074.713	0.127	-1.477	2.231
1337.000	-77.692	1337.000	3512977630.597	842.668	105.771	948.439	0.112	-1.477	2.231
1338.000	-77.692	1338.000	3512977632.097	726.873	189.046	915.919	0.206	-1.477	-1.841
1339.000	-79.678	1339.000	3512977633.597	721.234	278.240	999.474	0.278	-1.477	-1.841
1340.000	-79.678	1340.000	3512977635.097	701.299	302.611	1003.910	0.301	0.887	-1.841
1341.000	-78.944	1341.000	3512977636.597	593.007	326.587	919.594	0.355	0.887	-1.841
1342.000	-78.944	1342.000	3512977638.097	679.054	264.427	943.481	0.280	0.887	0.215
1343.000	-78.784	1343.000	3512977639.598	821.090	232.262	1053.352	0.220	0.887	0.215
1344.000	-78.784	1344.000	3512977641.097	800.710	332.211	1132.921	0.293	-0.700	0.215
1345.000	-79.589	1345.000	3512977642.598	716.395	182.238	898.632	0.203	-0.700	0.215
1346.000	-79.589	1346.000	3512977644.098	704.140	271.728	975.868	0.278	-0.700	0.680
1347.000	-79.010	1347.000	3512977645.599	685.981	395.456	1081.437	0.366	-0.700	0.680
1348.000	-79.010	1348.000	3512977647.098	864.202	277.747	1141.949	0.243	0.707	0.680
1349.000	-78.390	1349.000	3512977648.598	835.032	215.686	1050.717	0.205	0.707	0.680
1350.000	-78.390	1350.000	3512977650.098	804.706	317.904	1122.611	0.283	0.707	-1.145
1351.000	-79.684	1351.000	3512977651.598	856.122	302.414	1158.535	0.261	0.707	-1.145
1352.000	-79.684	1352.000	3512977653.098	738.195	302.907	1041.102	0.291	0.728	-1.145
1353.000	-79.072	1353.000	3512977654.597	732.823	415.288	1148.111	0.362	0.728	-1.145
1354.000	-79.072	1354.000	3512977656.097	828.416	91.365	919.781	0.099	0.728	0.280
1355.000	-78.913	1355.000	3512977657.597	829.348	293.534	1122.882	0.261	0.728	0.280
1356.000	-78.913	1356.000	3512977659.098	750.494	331.027	1081.521	0.306	-2.453	0.280
1357.000	-81.528	1357.000	3512977660.598	845.998	49.728	895.726	0.056	-2.453	0.280
1358.000	-81.528	1358.000	3512977662.098	661.072	436.206	1097.278	0.398	-2.453	0.418
1359.000	-81.256	1359.000	3512977663.599	876.501	180.165	1056.667	0.171	-2.453	0.418
1360.000	-81.256	1360.000	3512977665.097	868.776	269.459	1138.235	0.237	3.198	0.418
1361.000	-78.039	1361.000	3512977666.598	687.224	340.598	1027.822	0.331	3.198	0.418
1362.000	-78.039	1362.000	3512977668.098	952.070	152.341	1104.411	0.138	3.198	0.619
1363.000	-77.450	1363.000	3512977669.598	605.705	499.155	1104.861	0.452	3.198	0.619
1364.000	-77.450	1364.000	3512977671.098	889.111	195.262	1084.372	0.180	-1.809	0.619
1365.000	-79.405	1365.000	3512977672.598	694.550	187.664	882.214	0.213	-1.809	0.619
1366.000	-79.405	1366.000	3512977674.098	811.899	181.646	993.545	0.183	-1.809	-2.541
1367.000	-82.144	1367.000	3512977675.598	916.017	331.224	1247.241	0.266	-1.809	-2.541
1368.000	-82.144	1368.000	3512977677.098	682.029	518.395	1200.424	0.432	-0.280	-2.541
1369.000	-82.529	1369.000	3512977678.598	780.198	248.640	1028.838	0.242	-0.280	-2.541
1370.000	-82.529	1370.000	3512977680.099	875.569	88.109	963.678	0.091	-0.280	1.555
1371.000	-81.117	1371.000	3512977681.598	912.998	308.728	1221.726	0.253	-0.280	1.555
1372.000	-81.117	1372.000	3512977683.098	847.064	265.315	1112.379	0.239	-1.405	1.555
1373.000	-82.600	1373.000	3512977684.598	969.031	107.547	1076.578	0.100	-1.405	1.555
1374.000	-82.600	1374.000	3512977686.099	614.541	340.795	955.336	0.357	-1.405	-0.133
1375.000	-82.725	1375.000	3512977687.598	816.250	252.488	1068.739	0.236	-1.405	-0.133
1376.000	-82.725	1376.000	3512977689.098	796.492	354.411	1150.903	0.308	2.401	-0.133
1377.000	-80.384	1377.000	3512977690.598	707.337	303.696	1011.033	0.300	2.401	-0.133
1378.000	-80.384	1378.000	3512977692.098	831.480	83.571	915.050	0.091	2.401	0.670
1379.000	-79.844	1379.000	3512977693.598	740.859	354.214	1095.073	0.323	2.401	0.670
1380.000	-79.844	1380.000	3512977695.098	765.412	251.502	1016.914	0.247	-1.955	0.670
1381.000	-81.872	1381.000	3512977696.598	959.796	162.899	1122.694	0.145	-1.955	0.670
1382.000	-81.872	1382.000	3512977698.099	746.098	267.880	1013.979	0.264	-1.955	-0.712
1383.000	-82.620	1383.000	3512977699.598	878.766	245.483	1124.249	0.218	-1.955	-0.712
1384.000	-82.620	1384.000	3512977701.098	841.780	263.440	1105.220	0.238	1.114	-0.712
1385.000	-81.596	1385.000	3512977702.598	899.767	264.427	1164.194	0.227	1.114	-0.712
1386.000	-81.596	1386.000	3512977704.098	904.873	156.584	1061.457	0.148	1.114	0.187
1387.000	-81.485	1387.000	3512977705.598	903.585	187.368	1090.953	0.172	1.114	0.187
1388.000	-81.485	1388.000	3512977707.099	902.031	283.174	1185.205	0.239	-0.744	0.187
1389.000	-82.301	1389.000	3512977708.599	867.444	204.635	1072.078	0.191	-0.744	0.187
1390.000	-82.301	1390.000	3512977710.099	588.389	438.475	1026.865	0.427	-0.744	0.628
1391.000	-81.765	1391.000	3512977711.599	752.581	301.723	1054.304	0.286	-0.744	0.628
1392.000	-81.765	1392.000	3512977713.098	1002.020	123.037	1125.057	0.109	2.208	0.628
1393.000	-79.623	1393.000	3512977714.598	743.834	247.259	991.093	0.249	2.208	0.628
1394.000	-79.623	1394.000	3512977716.099	1008.325	96.299	1104.624	0.087	2.208	-1.653
1395.000	-81.462	1395.000	3512977717.598	1092.508	71.040	1163.548	0.061	2.208	-1.653
1396.000	-81.462	1396.000	3512977719.099	811.366	301.526	1112.892	0.271	-1.518	-1.653
1397.000	-83.077	1397.000	3512977720.598	888.179	296.296	1184.475	0.250	-1.518	-1.653
1398.000	-83.077	1398.000	3512977722.099	737.085	190.131	927.216	0.205	-1.518	1.962
1399.000	-81.215	1399.000	3512977723.599	778.466	338.920	1117.386	0.303	-1.518	1.962
1400.000	-81.215	1400.000	3512977725.098	1031.413	229.400	1260.813	0.182	-0.422	1.962
1401.000	-81.748	1401.000	3512977726.598	914.952	132.115	1047.066	0.126	-0.422	1.962
1402.000	-81.748	1402.000	3512977728.098	696.015	372.270	1068.285	0.348	-0.422	-1.135
1403.000	-83.014	1403.000	3512977729.598	987.191	46.768	1033.959	0.045	-0.422	-1.135
1404.000	-83.014	1404.000	3512977731.098	783.084	319.976	1103.060	0.290	2.078	-1.135
1405.000	-80.990	1405.000	3512977732.600	740.548	337.934	1078.482	0.313	2.078	-1.135
1406.000	-80.990	1406.000	3512977734.104	988.301	136.160	1124.461	0.121	2.078	2.289
1407.000	-78.656	1407.000	3512977735.599	921.390	358.555	1279.945	0.280	2.078	2.289
1408.000	-78.656	1408.000	3512977737.099	1072.749	97.976	1170.725	0.084	-1.798	2.289
1409.000	-80.503	1409.000	3512977738.599	953.313	133.693	1087.007	0.123	-1.798	2.289
1410.000	-80.503	1410.000	3512977740.098	651.438	304.091	955.529	0.318	-1.798	-1.837
1411.000	-82.397	1411.000	3512977741.599	1034.832	140.403	1175.234	0.119	-1.798	-1.837
1412.000	-82.397	1412.000	3512977743.099	616.095	363.488	979.583	0.371	1.826	-1.837
1413.000	-80.628	1413.000	3512977744.599	876.368	365.560	1241.928	0.294	1.826	-1.837
1414.000	-80.628	1414.000	3512977746.098	761.017	299.848	1060.865	0.283	1.826	2.352
1415.000	-78.325	1415.000	3512977747.598	808.969	367.928	1176.897	0.313	1.826	2.352
1416.000	-78.325	1416.000	3512977749.098	909.135	362.699	1271.834	0.285	-0.109	2.352
1417.000	-78.424	1417.000	3512977750.599	871.395	326.291	1197.686	0.272	-0.109	2.352
1418.000	-78.424	1418.000	3512977752.099	854.568	64.528	919.096	0.070	-0.109	-0.257
1419.000	-78.653	1419.000	3512977753.599	590.654	441.238	1031.892	0.428	-0.109	-0.257
1420.000	-78.653	1420.000	3512977755.099	941.991	251.008	1193.000	0.210	-1.891	-0.257
1421.000	-80.667	1421.000	3512977756.599	1068.043	177.995	1246.038	0.143	-1.891	-0.257
1422.000	-80.667	1422.000	3512977758.099	712.354	394.864	1107.219	0.357	-1.891	-2.031
1423.000	-82.774	1423.000	3512977759.599	1147.830	186.678	1334.507	0.140	-1.891	-2.031
1424.000	-82.774	1424.000	3512977761.099	831.213	413.710	1244.923	0.332	1.999	-2.031
1425.000	-80.763	1425.000	3512977762.599	876.990	239.760	1116.750	0.215	1.999	-2.031
1426.000	-80.763	1426.000	3512977764.098	832.856	189.934	1022.790	0.186	1.999	1.799
1427.000	-78.985	1427.000	3512977765.599	881.074	469.654	1350.728	0.348	1.999	1.799
1428.000	-78.985	1428.000	3512977767.099	944.167	274.590	1218.756	0.225	-0.271	1.799
1429.000	-79.286	1429.000	3512977768.599	892.174	177.403	1069.577	0.166	-0.271	1.799
1430.000	-79.286	1430.000	3512977770.099	767.144	343.459	1110.603	0.309	-0.271	-1.144
1431.000	-80.448	1431.000	3512977771.606	999.179	302.611	1301.790	0.232	-0.271	-1.144
1432.000	-80.448	1432.000	3512977773.098	825.663	310.702	1136.365	0.273	1.341	-1.144
1433.000	-79.104	1433.000	3512977774.599	931.424	336.454	1267.878	0.265	1.341	-1.144
1434.000	-79.104	1434.000	3512977776.099	958.908	93.339	1052.246	0.089	1.341	0.383
1435.000	-78.727	1435.000	3512977777.599	870.196	228.808	1099.005	0.208	1.341	0.383
1436.000	-78.727	1436.000	3512977779.099	838.006	407.790	1245.796	0.327	-1.652	0.383
1437.000	-80.329	1437.000	3512977780.603	843.867	309.912	1153.780	0.269	-1.652	0.383
1438.000	-80.329	1438.000	3512977782.099	847.020	216.672	1063.692	0.204	-1.652	1.114
1439.000	-79.181	1439.000	3512977783.604	826.418	350.464	1176.882	0.298	-1.652	1.114
1440.000	-79.181	1440.000	3512977785.100	1023.687	251.995	1275.682	0.198	-0.607	1.114
1441.000	-79.918	1441.000	3512977786.599	999.267	187.467	1186.734	0.158	-0.607	1.114
1442.000	-79.918	1442.000	3512977788.099	697.702	422.096	1119.799	0.377	-0.607	-0.937
1443.000	-80.889	1443.000	3512977789.599	780.730	563.091	1343.822	0.419	-0.607	-0.937
1444.000	-80.889	1444.000	3512977791.099	898.080	288.896	1186.976	0.243	2.047	-0.937
1445.000	-78.787	1445.000	3512977792.599	706.538	181.251	887.789	0.204	2.047	-0.937
1446.000	-78.787	1446.000	3512977794.105	1020.624	175.923	1196.547	0.147	2.047	-1.642
1447.000	-80.418	1447.000	3512977795.605	1049.351	235.616	1284.967	0.183	2.047	-1.642
1448.000	-80.418	1448.000	3512977797.099	795.027	265.019	1060.046	0.250	-0.534	-1.642
1449.000	-80.900	1449.000	3512977798.599	907.359	258.310	1165.669	0.222	-0.534	-1.642
1450.000	-80.900	1450.000	3512977800.104	1009.169	93.832	1103.001	0.085	-0.534	0.623
1451.000	-80.302	1451.000	3512977801.599	973.160	203.056	1176.216	0.173	-0.534	0.623
1452.000	-80.302	1452.000	3512977803.104	712.221	351.747	1063.968	0.331	-1.277	0.623
1453.000	-81.512	1453.000	3512977804.605	719.991	282.187	1002.178	0.282	-1.277	0.623
1454.000	-81.512	1454.000	3512977806.106	782.506	127.181	909.688	0.140	-1.277	1.477
1455.000	-79.974	1455.000	3512977807.605	781.974	324.712	1106.686	0.293	-1.277	1.477
1456.000	-79.974	1456.000	3512977809.105	1072.616	232.854	1305.470	0.178	-1.326	1.477
1457.000	-81.412	1457.000	3512977810.605	1005.128	170.299	1175.427	0.145	-1.326	1.477
1458.000	-81.412	1458.000	3512977812.099	588.745	603.545	1192.289	0.506	-1.326	-1.076
1459.000	-82.512	1459.000	3512977813.599	920.235	257.619	1177.854	0.219	-1.326	-1.076
1460.000	-82.512	1460.000	3512977815.104	896.304	159.051	1055.355	0.151	3.378	-1.076
1461.000	-78.982	1461.000	3512977816.606	624.487	479.422	1103.908	0.434	3.378	-1.076
1462.000	-78.982	1462.000	3512977818.105	1075.192	119.091	1194.282	0.100	3.378	-0.636
1463.000	-79.632	1463.000	3512977819.606	931.158	399.798	1330.955	0.300	3.378	-0.636
1464.000	-79.632	1464.000	3512977821.106	766.700	464.424	1231.125	0.377	-3.128	-0.636
1465.000	-82.810	1465.000	3512977822.605	999.623	202.662	1202.284	0.169	-3.128	-0.636
1466.000	-82.810	1466.000	3512977824.104	639.316	370.099	1009.415	0.367	-3.128	0.719
1467.000	-82.078	1467.000	3512977825.605	823.487	296.099	1119.586	0.264	-3.128	0.719
1468.000	-82.078	1468.000	3512977827.105	1096.725	160.333	1257.059	0.128	1.852	0.719
1469.000	-80.143	1469.000	3512977828.604	769.053	422.096	1191.150	0.354	1.852	0.719
1470.000	-80.143	1470.000	3512977830.104	807.592	160.827	968.419	0.166	1.852	-1.280
1471.000	-81.501	1471.000	3512977831.606	1010.234	202.563	1212.797	0.167	1.852	-1.280
1472.000	-81.501	1472.000	3512977833.105	771.584	370.888	1142.472	0.325	-1.761	-1.280
1473.000	-83.370	1473.000	3512977834.605	886.180	145.040	1031.221	0.141	-1.761	-1.280
1474.000	-83.370	1474.000	3512977836.105	713.908	334.974	1048.882	0.319	-1.761	1.474
1475.000	-81.817	1475.000	3512977837.606	967.610	332.310	1299.920	0.256	-1.761	1.474
1476.000	-81.817	1476.000	3512977839.106	809.013	255.744	1064.757	0.240	1.671	1.474
1477.000	-80.097	1477.000	3512977840.605	787.701	302.118	1089.819	0.277	1.671	1.474
1478.000	-80.097	1478.000	3512977842.106	900.611	205.030	1105.640	0.185	1.671	-0.144
1479.000	-80.254	1479.000	3512977843.605	953.624	368.915	1322.539	0.279	1.671	-0.144
1480.000	-80.254	1480.000	3512977845.106	1059.429	250.515	1309.944	0.191	-0.858	-0.144
1481.000	-81.078	1481.000	3512977846.604	802.797	124.616	927.413	0.134	-0.858	-0.144
1482.000	-81.078	1482.000	3512977848.104	839.871	180.166	1020.037	0.177	-0.858	-0.820
1483.000	-81.890	1483.000	3512977849.605	942.080	277.155	1219.235	0.227	-0.858	-0.820
1484.000	-81.890	1484.000	3512977851.106	949.095	260.974	1210.069	0.216	0.395	-0.820
1485.000	-81.538	1485.000	3512977852.605	734.732	399.600	1134.332	0.352	0.395	-0.820
1486.000	-81.538	1486.000	3512977854.105	994.872	126.293	1121.165	0.113	0.395	-0.109
1487.000	-81.752	1487.000	3512977855.606	849.506	223.579	1073.085	0.208	0.395	-0.109
1488.000	-81.752	1488.000	3512977857.106	850.216	186.283	1036.499	0.180	-2.241	-0.109
1489.000	-84.057	1489.000	3512977858.605	897.325	106.363	1003.688	0.106	-2.241	-0.109
1490.000	-84.057	1490.000	3512977860.105	687.180	362.502	1049.681	0.345	-2.241	-0.268
1491.000	-84.359	1491.000	3512977861.605	857.542	460.083	1317.625	0.349	-2.241	-0.268
1492.000	-84.359	1492.000	3512977863.105	857.054	372.566	1229.620	0.303	2.238	-0.268
1493.000	-82.165	1493.000	3512977864.606	580.042	439.462	1019.504	0.431	2.238	-0.268
1494.000	-82.165	1494.000	3512977866.107	994.206	137.739	1131.944	0.122	2.238	-0.432
1495.000	-82.769	1495.000	3512977867.607	963.437	204.734	1168.170	0.175	2.238	-0.432
1496.000	-82.769	1496.000	3512977869.099	944.345	343.558	1287.902	0.267	-2.893	-0.432
1497.000	-85.844	1497.000	3512977870.605	1156.488	133.595	1290.083	0.104	-2.893	-0.432
1498.000	-85.844	1498.000	3512977872.105	654.768	445.283	1100.051	0.405	-2.893	0.856
1499.000	-85.112	1499.000	3512977873.606	940.792	305.966	1246.758	0.245	-2.893	0.856
1500.000	-85.112	1500.000	3512977875.107	892.263	175.726	1067.989	0.165	2.816	0.856
1501.000	-82.252	1501.000	3512977876.606	582.307	319.483	901.790	0.354	2.816	0.856
1502.000	-82.252	1502.000	3512977878.105	944.300	160.333	1104.634	0.145	2.816	-0.756
1503.000	-83.075	1503.000	3512977879.607	875.303	299.848	1175.151	0.255	2.816	-0.756
1504.000	-83.075	1504.000	3512977881.104	742.857	348.195	1091.052	0.319	-1.955	-0.756
1505.000	-85.177	1505.000	3512977882.605	772.650	382.334	1154.983	0.331	-1.955	-0.756
1506.000	-85.177	1506.000	3512977884.105	675.547	331.027	1006.574	0.329	-1.955	0.598
1507.000	-84.705	1507.000	3512977885.607	876.412	369.507	1245.919	0.297	-1.955	0.598
1508.000	-84.705	1508.000	3512977887.106	879.743	235.616	1115.359	0.211	-0.020	0.598
1509.000	-84.867	1509.000	3512977888.606	681.896	212.035	893.931	0.237	-0.020	0.598
1510.000	-84.867	1510.000	3512977890.107	694.195	479.126	1173.321	0.408	-0.020	-0.798
1511.000	-85.780	1511.000	3512977891.607	868.021	244.496	1112.517	0.220	-0.020	-0.798
1512.000	-85.780	1512.000	3512977893.106	725.497	422.688	1148.185	0.368	1.600	-0.798
1513.000	-84.314	1513.000	3512977894.604	678.122	438.771	1116.893	0.393	1.600	-0.798
1514.000	-84.314	1514.000	3512977896.107	844.666	154.118	998.784	0.154	1.600	1.387
1515.000	-82.995	1515.000	3512977897.606	606.416	502.411	1108.827	0.453	1.600	1.387
1516.000	-82.995	1516.000	3512977899.107	986.613	227.032	1213.646	0.187	-2.230	1.387
1517.000	-85.396	1517.000	3512977900.607	879.521	136.259	1015.779	0.134	-2.230	1.387
1518.000	-85.396	1518.000	3512977902.105	579.909	270.544	850.453	0.318	-2.230	-2.487
1519.000	-88.136	1519.000	3512977903.606	988.656	166.747	1155.403	0.144	-2.230	-2.487
1520.000	-88.136	1520.000	3512977905.106	728.960	375.427	1104.387	0.340	1.720	-2.487
1521.000	-86.480	1521.000	3512977906.605	687.046	238.576	925.622	0.258	1.720	-2.487
1522.000	-86.480	1522.000	3512977908.106	760.528	141.192	901.721	0.157	1.720	1.829
1523.000	-84.779	1523.000	3512977909.608	-17.360	13.123	-4.238	-3.097	1.720	1.829
1524.000	-84.779	1524.000	3512977911.108	-28.105	-13.813	-41.919	0.330	-0.946	1.829
1525.000	-85.937	1525.000	3512977912.607	-15.673	31.080	15.407	2.017	-0.946	1.829
1546.000	-88.268	1546.000	3512977944.107	708.491	348.096	1056.588	0.329	-0.616	-0.306
1547.000	-88.640	1547.000	3512977945.606	870.818	324.712	1195.530	0.272	-0.616	-0.306
1548.000	-88.640	1548.000	3512977947.106	705.028	349.083	1054.111	0.331	1.249	-0.306
1549.000	-87.507	1549.000	3512977948.607	896.170	117.216	1013.387	0.116	1.249	-0.306
1550.000	-87.507	1550.000	3512977950.105	823.132	124.419	947.551	0.131	1.249	0.557
1551.000	-87.023	1551.000	3512977951.608	736.508	354.312	1090.820	0.325	1.249	0.557
1552.000	-87.023	1552.000	3512977953.106	881.296	192.795	1074.091	0.179	0.146	0.557
1553.000	-86.929	1553.000	3512977954.606	728.250	344.840	1073.090	0.321	0.146	0.557
1554.000	-86.929	1554.000	3512977956.106	816.428	256.731	1073.159	0.239	0.146	-1.359
1555.000	-88.505	1555.000	3512977957.608	1033.988	279.819	1313.807	0.213	0.146	-1.359
1556.000	-88.505	1556.000	3512977959.107	641.536	367.040	1008.577	0.364	-0.768	-1.359
1557.000	-89.529	1557.000	3512977960.606	713.509	196.347	909.856	0.216	-0.768	-1.359
1558.000	-89.529	1558.000	3512977962.109	669.775	309.814	979.588	0.316	-0.768	1.411
1559.000	-88.225	1559.000	3512977963.609	730.825	239.267	970.091	0.247	-0.768	1.411
1560.000	-88.225	1560.000	3512977965.108	914.374	186.974	1101.348	0.170	0.939	1.411
1561.000	-87.359	1561.000	3512977966.606	794.716	144.053	938.770	0.153	0.939	1.411
1562.000	-87.359	1562.000	3512977968.100	773.449	219.534	992.982	0.221	0.939	-0.719
1563.000	-88.193	1563.000	3512977969.608	826.018	322.048	1148.067	0.281	0.939	-0.719
1564.000	-88.193	1564.000	3512977971.106	823.354	374.046	1197.400	0.312	0.632	-0.719
1565.000	-87.696	1565.000	3512977972.604	788.056	230.387	1018.443	0.226	0.632	-0.719
1566.000	-87.696	1566.000	3512977974.104	853.857	179.870	1033.727	0.174	0.632	0.298
1567.000	-87.540	1567.000	3512977975.608	770.962	209.075	980.037	0.213	0.632	0.298
1568.000	-87.540	1568.000	3512977977.105	731.313	422.294	1153.607	0.366	-0.488	0.298
1569.000	-88.111	1569.000	3512977978.609	712.354	240.846	953.200	0.253	-0.488	0.298
1570.000	-88.111	1570.000	3512977980.099	883.694	229.795	1113.489	0.206	-0.488	1.428
1571.000	-86.696	1571.000	3512977981.606	599.401	435.022	1034.422	0.421	-0.488	1.428
1572.000	-86.696	1572.000	3512977983.107	865.224	180.462	1045.685	0.173	-0.433	1.428
1573.000	-87.316	1573.000	3512977984.605	815.496	178.587	994.082	0.180	-0.433	1.428
1574.000	-87.316	1574.000	3512977986.108	781.263	254.758	1036.021	0.246	-0.433	-2.319
1575.000	-89.835	1575.000	3512977987.606	980.309	224.171	1204.479	0.186	-0.433	-2.319
1576.000	-89.835	1576.000	3512977989.104	824.687	313.168	1137.855	0.275	0.619	-2.319
1577.000	-89.340	1577.000	3512977990.608	603.308	434.430	1037.737	0.419	0.619	-2.319
1578.000	-89.340	1578.000	3512977992.106	714.974	328.955	1043.929	0.315	0.619	0.833
1579.000	-88.672	1579.000	3512977993.608	733.267	220.422	953.688	0.231	0.619	0.833
1580.000	-88.672	1580.000	3512977995.110	773.804	314.747	1088.551	0.289	-0.968	0.833
1581.000	-89.840	1581.000	3512977996.609	792.274	286.528	1078.803	0.266	-0.968	0.833
1582.000	-89.840	1582.000	3512977998.107	654.057	156.387	810.444	0.193	-0.968	0.542
1583.000	-89.403	1583.000	3512977999.609	727.317	168.819	896.136	0.188	-0.968	0.542
1584.000	-89.403	1584.000	3512978001.108	794.050	274.096	1068.147	0.257	-0.679	0.542
1585.000	-90.212	1585.000	3512978002.606	973.959	271.827	1245.786	0.218	-0.679	0.542
1586.000	-90.212	1586.000	3512978004.105	593.851	560.328	1154.179	0.485	-0.679	0.638
1587.000	-89.648	1587.000	3512978005.606	647.486	358.456	1005.942	0.356	-0.679	0.638
1588.000	-89.648	1588.000	3512978007.108	850.172	139.021	989.193	0.141	2.499	0.638
1589.000	-87.269	1589.000	3512978008.605	753.868	273.603	1027.471	0.266	2.499	0.638
1590.000	-87.269	1590.000	3512978010.105	845.377	180.166	1025.542	0.176	2.499	-2.018
1591.000	-89.446	1591.000	3512978011.608	823.266	186.678	1009.943	0.185	2.499	-2.018
1592.000	-89.446	1592.000	3512978013.108	734.821	277.451	1012.272	0.274	-0.847	-2.018
1593.000	-90.315	1593.000	3512978014.606	-27.439	41.637	14.198	2.933	-0.847	-2.018
1594.000	-90.315	1594.000	3512978016.106	660.717	222.592	883.309	0.252	-0.847	0.834
1595.000	-89.583	1595.000	3512978017.606	871.972	236.406	1108.378	0.213	-0.847	0.834
1600.000	-87.488	1600.000	3512978025.105	907.581	207.990	1115.571	0.186	-0.418	2.151
1601.000	-88.081	1601.000	3512978026.608	672.616	343.854	1016.470	0.338	-0.418	2.151
1602.000	-88.081	1602.000	3512978028.107	584.305	299.059	883.364	0.339	-0.418	-1.849
1603.000	-90.014	1603.000	3512978029.610	826.462	390.523	1216.985	0.321	-0.418	-1.849
1604.000	-90.014	1604.000	3512978031.106	877.434	206.707	1084.141	0.191	0.002	-1.849
1605.000	-90.101	1605.000	3512978032.609	922.810	110.211	1033.021	0.107	0.002	-1.849
1606.000	-90.101	1606.000	3512978034.108	555.622	274.787	830.409	0.331	0.002	-1.218
1607.000	-91.494	1607.000	3512978035.608	918.859	108.533	1027.392	0.106	0.002	-1.218
1608.000	-91.494	1608.000	3512978037.108	686.158	471.528	1157.687	0.407	2.096	-1.218
1609.000	-89.378	1609.000	3512978038.606	645.177	103.205	748.383	0.138	2.096	-1.218
1610.000	-89.378	1610.000	3512978040.109	845.910	164.971	1010.880	0.163	2.096	2.821
1611.000	-86.554	1611.000	3512978041.606	590.432	544.739	1135.171	0.480	2.096	2.821
1612.000	-86.554	1612.000	3512978043.110	907.759	116.821	1024.580	0.114	0.236	2.821
1613.000	-86.358	1613.000	3512978044.606	492.618	432.752	925.371	0.468	0.236	2.821
1614.000	-86.358	1614.000	3512978046.107	809.857	81.400	891.257	0.091	0.236	-3.421
1615.000	-90.011	1615.000	3512978047.608	909.269	165.168	1074.437	0.154	0.236	-3.421
1616.000	-90.011	1616.000	3512978049.106	718.526	309.222	1027.748	0.301	-3.519	-3.421
1617.000	-93.629	1617.000	3512978050.605	830.281	158.952	989.233	0.161	-3.519	-3.421
1618.000	-93.629	1618.000	3512978052.110	409.901	406.014	815.915	0.498	-3.519	1.376
1619.000	-92.300	1619.000	3512978053.610	760.928	315.339	1076.267	0.293	-3.519	1.376
1620.000	-92.300	1620.000	3512978055.107	629.859	506.259	1136.118	0.446	3.150	1.376
1621.000	-89.175	1621.000	3512978056.610	587.057	353.128	940.186	0.376	3.150	1.376
1622.000	-89.175	1622.000	3512978058.105	707.737	57.720	765.457	0.075	3.150	1.427
1623.000	-87.804	1623.000	3512978059.611	640.781	338.328	979.110	0.346	3.150	1.427
1624.000	-87.804	1624.000	3512978061.106	660.806	429.102	1089.907	0.394	-2.807	1.427
1625.000	-90.727	1625.000	3512978062.609	939.505	90.872	1030.377	0.088	-2.807	1.427
1626.000	-90.727	1626.000	3512978064.109	698.546	252.488	951.034	0.265	-2.807	0.450
1627.000	-90.292	1627.000	3512978065.606	614.319	314.648	928.967	0.339	-2.807	0.450
1628.000	-90.292	1628.000	3512978067.109	897.769	198.616	1096.385	0.181	1.658	0.450
1629.000	-88.632	1629.000	3512978068.606	725.230	363.883	1089.113	0.334	1.658	0.450
1630.000	-88.632	1630.000	3512978070.108	714.796	268.176	982.973	0.273	1.658	-1.473
1631.000	-90.218	1631.000	3512978071.608	566.855	295.408	862.264	0.343	1.658	-1.473
1632.000	-90.218	1632.000	3512978073.107	580.664	285.640	866.304	0.330	-0.573	-1.473
1633.000	-90.869	1633.000	3512978074.608	843.823	69.560	913.383	0.076	-0.573	-1.473
1634.000	-90.869	1634.000	3512978076.105	614.585	253.080	867.666	0.292	-0.573	-0.120
1635.000	-91.043	1635.000	3512978077.605	696.814	274.787	971.601	0.283	-0.573	-0.120
1636.000	-91.043	1636.000	3512978079.110	699.745	346.616	1046.361	0.331	2.015	-0.120
1637.000	-89.010	1637.000	3512978080.606	645.133	255.152	900.285	0.283	2.015	-0.120
1638.000	-89.010	1638.000	3512978082.112	695.083	155.795	850.878	0.183	2.015	0.453
1639.000	-88.651	1639.000	3512978083.612	721.190	199.504	920.694	0.217	2.015	0.453
1640.000	-88.651	1640.000	3512978085.108	745.699	367.830	1113.528	0.330	-0.938	0.453
1641.000	-89.575	1641.000	3512978086.608	662.804	227.230	890.033	0.255	-0.938	0.453
1642.000	-89.575	1642.000	3512978088.110	827.706	56.141	883.847	0.064	-0.938	1.063
1643.000	-88.517	1643.000	3512978089.605	638.917	339.019	977.936	0.347	-0.938	1.063
1644.000	-88.517	1644.000	3512978091.108	825.485	232.656	1058.142	0.220	-1.793	1.063
1645.000	-90.420	1645.000	3512978092.606	756.221	171.088	927.310	0.184	-1.793	1.063
1646.000	-90.420	1646.000	3512978094.106	713.686	192.696	906.382	0.213	-1.793	-1.186
1647.000	-91.678	1647.000	3512978095.611	583.550	316.523	900.073	0.352	-1.793	-1.186
1648.000	-91.678	1648.000	3512978097.105	711.644	375.328	1086.972	0.345	0.263	-1.186
1649.000	-91.546	1649.000	3512978098.604	865.312	142.080	1007.392	0.141	0.263	-1.186
1650.000	-91.546	1650.000	3512978100.110	658.763	273.504	932.268	0.293	0.263	-0.060
1651.000	-91.749	1651.000	3512978101.608	686.691	316.227	1002.918	0.315	0.263	-0.060
1652.000	-91.749	1652.000	3512978103.110	629.726	263.638	893.363	0.295	1.424	-0.060
1653.000	-90.359	1653.000	3512978104.609	700.544	206.312	906.856	0.228	1.424	-0.060
1654.000	-90.359	1654.000	3512978106.112	909.268	156.683	1065.951	0.147	1.424	-0.189
1655.000	-90.591	1655.000	3512978107.608	706.183	294.224	1000.407	0.294	1.424	-0.189
1656.000	-90.591	1656.000	3512978109.111	733.267	288.699	1021.966	0.282	-0.753	-0.189
1657.000	-91.392	1657.000	3512978110.611	807.326	256.238	1063.564	0.241	-0.753	-0.189
1658.000	-91.392	1658.000	3512978112.109	744.100	332.704	1076.805	0.309	-0.753	-0.109
1659.000	-91.583	1659.000	3512978113.608	819.447	198.814	1018.261	0.195	-0.753	-0.109
1660.000	-91.583	1660.000	3512978115.111	727.273	178.094	905.366	0.197	0.636	-0.109
1661.000	-90.987	1661.000	3512978116.609	647.441	425.846	1073.287	0.397	0.636	-0.109
1662.000	-90.987	1662.000	3512978118.112	822.600	122.248	944.848	0.129	0.636	0.014
1663.000	-91.079	1663.000	3512978119.612	791.298	141.291	932.588	0.152	0.636	0.014
1664.000	-91.079	1664.000	3512978121.108	921.567	190.920	1112.488	0.172	-2.500	0.014
1665.000	-93.691	1665.000	3512978122.608	691.353	204.635	895.988	0.228	-2.500	0.014
1666.000	-93.691	1666.000	3512978124.108	435.387	291.264	726.651	0.401	-2.500	0.188
1667.000	-93.631	1667.000	3512978125.611	778.688	136.061	914.750	0.149	-2.500	0.188
1668.000	-93.631	1668.000	3512978127.105	739.927	321.259	1061.186	0.303	1.612	0.188
1669.000	-92.012	1669.000	3512978128.609	715.063	300.243	1015.306	0.296	1.612	0.188
1670.000	-92.012	1670.000	3512978130.109	625.019	350.267	975.286	0.359	1.612	1.440
1671.000	-90.530	1671.000	3512978131.612	577.911	377.104	955.015	0.395	1.612	1.440
1672.000	-90.530	1672.000	3512978133.110	774.648	365.363	1140.010	0.320	0.593	1.440
1673.000	-90.019	1673.000	3512978134.609	645.532	195.558	841.090	0.233	0.593	1.440
1674.000	-90.019	1674.000	3512978136.109	867.443	112.677	980.121	0.115	0.593	-0.695
1675.000	-90.738	1675.000	3512978137.612	449.284	435.614	884.898	0.492	0.593	-0.695
1676.000	-90.738	1676.000	3512978139.112	770.252	176.120	946.372	0.186	-1.099	-0.695
1677.000	-91.930	1677.000	3512978140.611	751.471	298.368	1049.839	0.284	-1.099	-0.695
1678.000	-91.930	1678.000	3512978142.109	797.514	195.360	992.874	0.197	-1.099	-2.863
1679.000	-95.063	1679.000	3512978143.609	890.665	212.035	1102.700	0.192	-1.099	-2.863
1680.000	-95.063	1680.000	3512978145.110	650.017	283.667	933.684	0.304	-0.818	-2.863
1681.000	-95.997	1681.000	3512978146.608	705.383	406.211	1111.594	0.365	-0.818	-2.863
1682.000	-95.997	1682.000	3512978148.111	693.440	218.646	912.085	0.240	-0.818	1.043
1683.000	-95.092	1683.000	3512978149.611	870.152	314.944	1185.096	0.266	-0.818	1.043
1684.000	-95.092	1684.000	3512978151.112	585.637	414.795	1000.432	0.415	-1.175	1.043
1685.000	-96.440	1685.000	3512978152.610	824.020	113.467	937.487	0.121	-1.175	1.043
1686.000	-96.440	1686.000	3512978154.112	558.996	393.088	952.085	0.413	-1.175	1.392
1687.000	-95.058	1687.000	3512978155.613	604.906	319.976	924.882	0.346	-1.175	1.392
1688.000	-95.058	1688.000	3512978157.111	776.912	135.173	912.085	0.148	2.729	1.392
1689.000	-92.474	1689.000	3512978158.605	690.021	273.998	964.019	0.284	2.729	1.392
1690.000	-92.474	1690.000	3512978160.105	731.624	170.003	901.627	0.189	2.729	-1.849
1691.000	-94.559	1691.000	3512978161.606	948.518	111.296	1059.814	0.105	2.729	-1.849
1692.000	-94.559	1692.000	3512978163.111	709.557	190.723	900.280	0.212	-0.895	-1.849
1693.000	-95.663	1693.000	3512978164.609	796.448	168.720	965.168	0.175	-0.895	-1.849
1694.000	-95.663	1694.000	3512978166.109	625.419	291.758	917.177	0.318	-0.895	0.999
1695.000	-94.690	1695.000	3512978167.613	731.846	338.822	1070.667	0.316	-0.895	0.999
1696.000	-94.690	1696.000	3512978169.105	744.722	368.718	1113.440	0.331	1.340	0.999
1697.000	-93.325	1697.000	3512978170.612	558.863	314.352	873.216	0.360	1.340	0.999
1698.000	-93.325	1698.000	3512978172.113	838.850	164.675	1003.525	0.164	1.340	0.137
1699.000	-93.266	1699.000	3512978173.613	778.200	388.648	1166.848	0.333	1.340	0.137
1700.000	-93.266	1700.000	3512978175.113	807.193	244.299	1051.492	0.232	-1.832	0.137
1701.000	-95.315	1701.000	3512978176.613	861.627	150.960	1012.587	0.149	-1.832	0.137
1702.000	-95.315	1702.000	3512978178.112	750.894	279.326	1030.219	0.271	-1.832	-0.942
1703.000	-96.455	1703.000	3512978179.613	703.030	290.771	993.801	0.293	-1.832	-0.942
1704.000	-96.455	1704.000	3512978181.111	629.903	466.990	1096.893	0.426	1.141	-0.942
1705.000	-95.344	1705.000	3512978182.612	704.007	279.030	983.037	0.284	1.141	-0.942
1706.000	-95.344	1706.000	3512978184.112	777.001	296.691	1073.692	0.276	1.141	1.245
1707.000	-94.264	1707.000	3512978185.612	674.348	353.030	1027.378	0.344	1.141	1.245
1708.000	-94.264	1708.000	3512978187.110	750.405	296.296	1046.701	0.283	-0.070	1.245
1709.000	-94.447	1709.000	3512978188.613	689.266	332.310	1021.576	0.325	-0.070	1.245
1710.000	-94.447	1710.000	3512978190.112	780.331	236.208	1016.539	0.232	-0.070	-0.566
1711.000	-95.140	1711.000	3512978191.612	1037.851	4.539	1042.390	0.004	-0.070	-0.566
1712.000	-95.140	1712.000	3512978193.111	882.184	329.152	1211.337	0.272	-0.869	-0.566
1713.000	-96.142	1713.000	3512978194.613	604.373	331.126	935.499	0.354	-0.869	-0.566
1714.000	-96.142	1714.000	3512978196.113	717.682	257.619	975.301	0.264	-0.869	2.500
1715.000	-93.639	1715.000	3512978197.613	499.501	507.443	1006.944	0.504	-0.869	2.500
1716.000	-93.639	1716.000	3512978199.113	1031.946	104.291	1136.237	0.092	-0.840	2.500
1717.000	-94.757	1717.000	3512978200.612	847.330	79.131	926.461	0.085	-0.840	2.500
1718.000	-94.757	1718.000	3512978202.112	593.984	286.627	880.611	0.325	-0.840	-3.854
1719.000	-98.821	1719.000	3512978203.612	1064.136	25.259	1089.394	0.023	-0.840	-3.854
1720.000	-98.821	1720.000	3512978205.112	549.184	395.259	944.443	0.419	2.245	-3.854
1721.000	-96.710	1721.000	3512978206.613	743.479	305.176	1048.655	0.291	2.245	-3.854
1722.000	-96.710	1722.000	3512978208.113	780.730	220.718	1001.448	0.220	2.245	3.696
1723.000	-93.097	1723.000	3512978209.613	681.230	298.862	980.092	0.305	2.245	3.696
1724.000	-93.097	1724.000	3512978211.113	818.426	249.528	1067.954	0.234	-0.660	3.696
1725.000	-93.842	1725.000	3512978212.613	820.247	228.118	1048.364	0.218	-0.660	3.696
1726.000	-93.842	1726.000	3512978214.114	674.703	234.827	909.530	0.258	-0.660	-0.666
1727.000	-94.570	1727.000	3512978215.613	729.582	359.739	1089.321	0.330	-0.660	-0.666
1728.000	-94.570	1728.000	3512978217.113	893.373	148.099	1041.472	0.142	0.380	-0.666
1729.000	-94.269	1729.000	3512978218.612	583.772	469.456	1053.228	0.446	0.380	-0.666
1730.000	-94.269	1730.000	3512978220.112	908.602	128.661	1037.264	0.124	0.380	-1.758
1731.000	-96.173	1731.000	3512978221.612	901.276	259.888	1161.165	0.224	0.380	-1.758
1732.000	-96.173	1732.000	3512978223.113	746.187	249.430	995.617	0.251	-3.008	-1.758
1733.000	-99.477	1733.000	3512978224.614	945.588	-4.341	941.246	-0.005	-3.008	-1.758
1734.000	-99.477	1734.000	3512978226.113	468.420	413.216	881.637	0.469	-3.008	0.250
1735.000	-99.352	1735.000	3512978227.613	633.100	416.472	1049.573	0.397	-3.008	0.250
1740.000	-96.568	1740.000	3512978235.112	494.217	582.035	1076.252	0.541	-2.418	-1.398
1741.000	-99.190	1741.000	3512978236.613	750.583	185.987	936.570	0.199	-2.418	-1.398
1746.000	-95.001	1746.000	3512978244.113	601.221	229.696	830.917	0.276	0.095	-2.851
1747.000	-97.989	1747.000	3512978245.613	829.970	231.374	1061.344	0.218	0.095	-2.851
1748.000	-97.989	1748.000	3512978247.114	873.171	256.830	1130.001	0.227	0.441	-2.851
1749.000	-97.687	1749.000	3512978248.614	674.303	244.102	918.405	0.266	0.441	-2.851
1750.000	-97.687	1750.000	3512978250.114	875.702	301.427	1177.129	0.256	0.441	0.087
1751.000	-97.805	1751.000	3512978251.613	1017.116	167.635	1184.751	0.141	0.441	0.087
1752.000	-97.805	1752.000	3512978253.111	626.440	278.832	905.272	0.308	-0.091	0.087
1753.000	-98.077	1753.000	3512978254.612	869.131	207.102	1076.232	0.192	-0.091	0.087
1754.000	-98.077	1754.000	3512978256.112	568.853	435.416	1004.270	0.434	-0.091	1.557
1755.000	-96.624	1755.000	3512978257.613	744.722	371.382	1116.104	0.333	-0.091	1.557
1756.000	-96.624	1756.000	3512978259.115	797.203	272.912	1070.115	0.255	2.255	1.557
1757.000	-94.388	1757.000	3512978260.615	631.591	273.603	905.193	0.302	2.255	1.557
1758.000	-94.388	1758.000	3512978262.114	825.042	196.150	1021.191	0.192	2.255	-0.727
1759.000	-95.116	1759.000	3512978263.615	766.789	179.771	946.560	0.190	2.255	-0.727
1760.000	-95.116	1760.000	3512978265.114	745.166	375.230	1120.396	0.335	-1.030	-0.727
1761.000	-96.171	1761.000	3512978266.613	693.662	262.552	956.214	0.275	-1.030	-0.727
1762.000	-96.171	1762.000	3512978268.114	775.091	239.958	1015.049	0.236	-1.030	1.356
1763.000	-94.789	1763.000	3512978269.614	682.251	349.872	1032.124	0.339	-1.030	1.356
1764.000	-94.789	1764.000	3512978271.113	989.011	177.206	1166.217	0.152	-0.357	1.356
1765.000	-95.125	1765.000	3512978272.614	881.385	259.198	1140.583	0.227	-0.357	1.356
1766.000	-95.125	1766.000	3512978274.114	786.458	365.659	1152.117	0.317	-0.357	-1.749
1767.000	-96.995	1767.000	3512978275.615	856.610	175.035	1031.645	0.170	-0.357	-1.749
1768.000	-96.995	1768.000	3512978277.113	688.600	306.854	995.454	0.308	0.843	-1.749
1769.000	-96.216	1769.000	3512978278.613	565.213	335.960	901.173	0.373	0.843	-1.749
1770.000	-96.216	1770.000	3512978280.113	889.866	286.824	1176.690	0.244	0.843	1.296
1771.000	-94.891	1771.000	3512978281.614	702.631	225.454	928.084	0.243	0.843	1.296
1772.000	-94.891	1772.000	3512978283.115	790.099	267.979	1058.078	0.253	-1.207	1.296
1773.000	-96.173	1773.000	3512978284.614	835.120	167.043	1002.163	0.167	-1.207	1.296
1774.000	-96.173	1774.000	3512978286.114	827.572	252.686	1080.258	0.234	-1.207	0.097
1775.000	-96.078	1775.000	3512978287.614	812.743	291.067	1103.810	0.264	-1.207	0.097
1776.000	-96.078	1776.000	3512978289.113	915.795	186.480	1102.276	0.169	0.629	0.097
1777.000	-95.553	1777.000	3512978290.614	779.576	129.944	909.520	0.143	0.629	0.097
1778.000	-95.553	1778.000	3512978292.115	892.530	248.640	1141.170	0.218	0.629	-0.884
1779.000	-96.489	1779.000	3512978293.615	737.440	238.872	976.312	0.245	0.629	-0.884
1780.000	-96.489	1780.000	3512978295.114	928.582	257.422	1186.004	0.217	0.701	-0.884
1781.000	-95.772	1781.000	3512978296.615	616.584	222.198	838.781	0.265	0.701	-0.884
1782.000	-95.772	1782.000	3512978298.114	1027.595	109.027	1136.621	0.096	0.701	-0.258
1783.000	-96.046	1783.000	3512978299.614	859.230	370.099	1229.329	0.301	0.701	-0.258
1784.000	-96.046	1784.000	3512978301.114	904.384	126.392	1030.777	0.123	-1.580	-0.258
1785.000	-97.735	1785.000	3512978302.613	637.274	325.995	963.269	0.338	-1.580	-0.258
1786.000	-97.735	1786.000	3512978304.114	868.198	250.910	1119.108	0.224	-1.580	-1.668
1787.000	-99.556	1787.000	3512978305.614	975.380	78.243	1053.623	0.074	-1.580	-1.668
1788.000	-99.556	1788.000	3512978307.114	675.680	298.072	973.752	0.306	-1.068	-1.668
1789.000	-100.786	1789.000	3512978308.614	868.243	230.782	1099.024	0.210	-1.068	-1.668
1790.000	-100.786	1790.000	3512978310.116	683.361	332.507	1015.868	0.327	-1.068	2.168
1791.000	-98.634	1791.000	3512978311.611	641.581	469.456	1111.037	0.423	-1.068	2.168
1792.000	-98.634	1792.000	3512978313.107	796.359	185.395	981.754	0.189	1.097	2.168
1793.000	-97.603	1793.000	3512978314.609	688.911	338.032	1026.943	0.329	1.097	2.168
1794.000	-97.603	1794.000	3512978316.109	973.160	194.867	1168.027	0.167	1.097	-2.185
1795.000	-100.032	1795.000	3512978317.607	1051.304	216.278	1267.582	0.171	1.097	-2.185
1796.000	-100.032	1796.000	3512978319.114	660.939	457.814	1118.753	0.409	-1.518	-2.185
1797.000	-101.647	1797.000	3512978320.614	873.571	227.032	1100.603	0.206	-1.518	-2.185
1798.000	-101.647	1798.000	3512978322.114	649.883	514.449	1164.332	0.442	-1.518	2.231
1799.000	-99.369	1799.000	3512978323.616	743.834	395.950	1139.784	0.347	-1.518	2.231
1800.000	-99.369	1800.000	3512978325.105	869.486	263.440	1132.926	0.233	2.202	2.231
1801.000	-97.256	1801.000	3512978326.615	726.829	314.352	1041.181	0.302	2.202	2.231
1802.000	-97.256	1802.000	3512978328.115	997.092	184.902	1181.993	0.156	2.202	-1.074
1803.000	-98.508	1803.000	3512978329.611	816.206	339.512	1155.718	0.294	2.202	-1.074
1804.000	-98.508	1804.000	3512978331.116	1007.260	213.416	1220.676	0.175	-1.360	-1.074
1805.000	-99.991	1805.000	3512978332.616	878.899	191.315	1070.214	0.179	-1.360	-1.074
1806.000	-99.991	1806.000	3512978334.116	782.373	285.246	1067.619	0.267	-1.360	-1.112
1807.000	-101.308	1807.000	3512978335.611	1005.750	247.062	1252.811	0.197	-1.360	-1.112
1808.000	-101.308	1808.000	3512978337.107	785.170	341.880	1127.051	0.303	0.827	-1.112
1809.000	-100.584	1809.000	3512978338.609	754.046	399.798	1153.844	0.346	0.827	-1.112
1810.000	-100.584	1810.000	3512978340.109	780.997	476.264	1257.261	0.379	0.827	0.992
1811.000	-99.666	1811.000	3512978341.607	921.168	243.707	1164.875	0.209	0.827	0.992
1812.000	-99.666	1812.000	3512978343.114	1146.054	164.576	1310.630	0.126	0.302	0.992
1813.000	-99.302	1813.000	3512978344.610	658.053	256.238	914.291	0.280	0.302	0.992
1814.000	-99.302	1814.000	3512978346.116	890.976	181.448	1072.424	0.169	0.302	-0.782
1815.000	-100.207	1815.000	3512978347.614	760.484	342.275	1102.759	0.310	0.302	-0.782
1816.000	-100.207	1816.000	3512978349.107	920.635	406.211	1326.846	0.306	-1.038	-0.782
1817.000	-101.439	1817.000	3512978350.611	666.001	391.510	1057.510	0.370	-1.038	-0.782
1818.000	-101.439	1818.000	3512978352.116	733.044	204.043	937.087	0.218	-1.038	-0.040
1819.000	-101.533	1819.000	3512978353.611	855.944	428.806	1284.750	0.334	-1.038	-0.040
1820.000	-101.533	1820.000	3512978355.109	745.388	420.024	1165.412	0.360	-1.426	-0.040
1821.000	-103.110	1821.000	3512978356.609	958.464	96.397	1054.861	0.091	-1.426	-0.040
1822.000	-103.110	1822.000	3512978358.109	529.337	447.651	976.988	0.458	-1.426	0.249
1823.000	-103.104	1823.000	3512978359.615	1128.161	208.779	1336.939	0.156	-1.426	0.249
1824.000	-103.104	1824.000	3512978361.109	773.093	342.275	1115.368	0.307	3.430	0.249
1825.000	-99.656	1825.000	3512978362.610	756.133	275.774	1031.906	0.267	3.430	0.249
1826.000	-99.656	1826.000	3512978364.111	989.455	107.448	1096.903	0.098	3.430	1.409
1827.000	-98.290	1827.000	3512978365.611	837.474	327.475	1164.949	0.281	3.430	1.409
1828.000	-98.290	1828.000	3512978367.109	1025.108	94.720	1119.828	0.085	-1.583	1.409
1829.000	-99.951	1829.000	3512978368.611	789.255	203.550	992.805	0.205	-1.583	1.409
1830.000	-99.951	1830.000	3512978370.114	762.171	399.798	1161.969	0.344	-1.583	-1.837
1831.000	-101.923	1831.000	3512978371.614	1117.016	132.213	1249.230	0.106	-1.583	-1.837
1832.000	-101.923	1832.000	3512978373.109	792.674	268.768	1061.442	0.253	1.300	-1.837
1833.000	-100.628	1833.000	3512978374.609	573.826	499.550	1073.376	0.465	1.300	-1.837
1834.000	-100.628	1834.000	3512978376.111	884.627	105.672	990.299	0.107	1.300	1.378
1835.000	-99.390	1835.000	3512978377.609	1024.131	263.243	1287.374	0.204	1.300	1.378
1836.000	-99.390	1836.000	3512978379.116	645.488	455.840	1101.328	0.414	-3.354	1.378
1837.000	-103.021	1837.000	3512978380.612	1030.392	179.277	1209.669	0.148	-3.354	1.378
1838.000	-103.021	1838.000	3512978382.114	579.198	539.214	1118.412	0.482	-3.354	1.958
1839.000	-101.070	1839.000	3512978383.612	459.363	628.803	1088.166	0.578	-3.354	1.958
1840.000	-101.070	1840.000	3512978385.111	1172.649	-42.821	1129.828	-0.038	3.122	1.958
1841.000	-98.030	1841.000	3512978386.611	716.883	452.782	1169.665	0.387	3.122	1.958
1850.000	-99.891	1850.000	3512978400.116	967.166	57.720	1024.886	0.056	2.646	-3.096
1851.000	-103.233	1851.000	3512978401.611	931.202	194.374	1125.576	0.173	2.646	-3.096
1856.000	-105.838	1856.000	3512978409.111	1037.895	385.688	1423.584	0.271	2.985	1.906
1857.000	-103.046	1857.000	3512978410.615	892.219	233.840	1126.059	0.208	2.985	1.906
1858.000	-103.046	1858.000	3512978412.109	937.995	264.032	1202.028	0.220	2.985	-2.399
1859.000	-105.699	1859.000	3512978413.613	992.963	217.758	1210.720	0.180	2.985	-2.399
1860.000	-105.699	1860.000	3512978415.115	615.562	534.083	1149.645	0.465	0.112	-2.399
1861.000	-105.813	1861.000	3512978416.616	983.861	248.542	1232.402	0.202	0.112	-2.399
1862.000	-105.813	1862.000	3512978418.113	715.329	312.379	1027.708	0.304	0.112	2.662
1863.000	-103.268	1863.000	3512978419.613	596.781	497.379	1094.160	0.455	0.112	2.662
1864.000	-103.268	1864.000	3512978421.111	912.465	99.357	1011.823	0.098	0.956	2.662
1865.000	-102.424	1865.000	3512978422.613	833.478	422.491	1255.969	0.336	0.956	2.662
1866.000	-102.424	1866.000	3512978424.114	813.853	385.195	1199.048	0.321	0.956	-3.332
1867.000	-105.962	1867.000	3512978425.614	1267.799	198.419	1466.218	0.135	0.956	-3.332
1868.000	-105.962	1868.000	3512978427.114	692.241	494.123	1186.364	0.417	-0.142	-3.332
1869.000	-106.169	1869.000	3512978428.614	820.158	280.904	1101.062	0.255	-0.142	-3.332
1870.000	-106.169	1870.000	3512978430.111	846.398	251.008	1097.406	0.229	-0.142	2.629
1871.000	-103.725	1871.000	3512978431.614	789.388	347.998	1137.386	0.306	-0.142	2.629
1872.000	-103.725	1872.000	3512978433.110	1113.198	228.808	1342.006	0.170	-0.247	2.629
1873.000	-104.100	1873.000	3512978434.614	978.666	170.990	1149.655	0.149	-0.247	2.629
1874.000	-104.100	1874.000	3512978436.114	708.625	330.928	1039.553	0.318	-0.247	-1.267
1875.000	-105.514	1875.000	3512978437.617	1066.622	107.744	1174.366	0.092	-0.247	-1.267
1876.000	-105.514	1876.000	3512978439.114	627.905	600.289	1228.194	0.489	1.586	-1.267
1877.000	-103.905	1877.000	3512978440.614	655.611	265.118	920.729	0.288	1.586	-1.267
1878.000	-103.905	1878.000	3512978442.114	1061.427	238.083	1299.510	0.183	1.586	3.712
1879.000	-100.261	1879.000	3512978443.616	563.925	586.475	1150.400	0.510	1.586	3.712
1880.000	-100.261	1880.000	3512978445.111	1026.529	205.918	1232.447	0.167	-0.979	3.712
1881.000	-101.370	1881.000	3512978446.611	852.658	252.094	1104.752	0.228	-0.979	3.712
1882.000	-101.370	1882.000	3512978448.114	833.700	299.355	1133.054	0.264	-0.979	-3.204
1883.000	-104.755	1883.000	3512978449.612	1188.589	398.219	1586.808	0.251	-0.979	-3.204
1884.000	-104.755	1884.000	3512978451.113	805.328	420.715	1226.043	0.343	0.337	-3.204
1885.000	-104.465	1885.000	3512978452.616	800.133	340.894	1141.027	0.299	0.337	-3.204
1886.000	-104.465	1886.000	3512978454.113	1033.367	114.749	1148.116	0.100	0.337	0.862
1887.000	-103.685	1887.000	3512978455.618	1099.567	176.021	1275.589	0.138	0.337	0.862
1888.000	-103.685	1888.000	3512978457.114	838.894	332.803	1171.697	0.284	-1.859	0.862
1889.000	-105.721	1889.000	3512978458.616	770.163	335.862	1106.025	0.304	-1.859	0.862
1890.000	-105.721	1890.000	3512978460.114	803.419	287.515	1090.934	0.264	-1.859	1.365
1891.000	-104.413	1891.000	3512978461.613	895.105	258.408	1153.513	0.224	-1.859	1.365
1892.000	-104.413	1892.000	3512978463.114	1074.614	76.368	1150.982	0.066	-0.375	1.365
1893.000	-105.003	1893.000	3512978464.616	1095.393	96.989	1192.383	0.081	-0.375	1.365
1894.000	-105.003	1894.000	3512978466.114	768.076	353.918	1121.994	0.315	-0.375	-1.474
1895.000	-106.568	1895.000	3512978467.617	999.978	225.059	1225.037	0.184	-0.375	-1.474
1896.000	-106.568	1896.000	3512978469.113	855.367	362.008	1217.375	0.297	2.189	-1.474
1897.000	-104.446	1897.000	3512978470.614	729.226	253.278	982.504	0.258	2.189	-1.474
1898.000	-104.446	1898.000	3512978472.115	858.608	209.766	1068.374	0.196	2.189	1.063
1899.000	-103.418	1899.000	3512978473.614	749.961	559.243	1309.204	0.427	2.189	1.063
1900.000	-103.418	1900.000	3512978475.113	939.638	312.971	1252.609	0.250	-0.575	1.063
1901.000	-104.011	1901.000	3512978476.617	787.834	350.168	1138.003	0.308	-0.575	1.063
1902.000	-104.011	1902.000	3512978478.116	1133.844	221.902	1355.745	0.164	-0.575	-1.658
1903.000	-105.798	1903.000	3512978479.616	896.259	355.003	1251.262	0.284	-0.575	-1.658
1904.000	-105.798	1904.000	3512978481.111	789.122	365.560	1154.682	0.317	-1.347	-1.658
1905.000	-107.395	1905.000	3512978482.616	987.723	115.341	1103.065	0.105	-1.347	-1.658
1906.000	-107.395	1906.000	3512978484.117	563.215	637.782	1200.997	0.531	-1.347	0.307
1907.000	-107.266	1907.000	3512978485.617	1052.192	92.747	1144.939	0.081	-1.347	0.307
1908.000	-107.266	1908.000	3512978487.118	704.051	399.403	1103.454	0.362	3.988	0.307
1909.000	-103.263	1909.000	3512978488.618	444.356	569.899	1014.255	0.562	3.988	0.307
1910.000	-103.263	1910.000	3512978490.118	1125.186	-19.240	1105.946	-0.017	3.988	2.627
1911.000	-100.598	1911.000	3512978491.618	663.381	555.987	1219.368	0.456	3.988	2.627
1916.000	-109.381	1916.000	3512978499.114	627.062	420.912	1047.974	0.402	3.289	-2.884
1917.000	-106.092	1917.000	3512978500.618	599.978	482.678	1082.656	0.446	3.289	-2.884
1918.000	-106.092	1918.000	3512978502.119	630.347	351.155	981.502	0.358	3.289	1.412
1919.000	-104.875	1919.000	3512978503.618	1002.464	281.496	1283.960	0.219	3.289	1.412
1920.000	-104.875	1920.000	3512978505.118	908.070	560.329	1468.398	0.382	-0.823	1.412
1921.000	-105.882	1921.000	3512978506.618	923.610	223.678	1147.287	0.195	-0.823	1.412
1922.000	-105.882	1922.000	3512978508.118	1045.044	160.333	1205.377	0.133	-0.823	1.518
1923.000	-104.204	1923.000	3512978509.619	781.663	531.715	1313.378	0.405	-0.823	1.518
1924.000	-104.204	1924.000	3512978511.116	974.048	126.096	1100.144	0.115	-0.579	1.518
1925.000	-104.837	1925.000	3512978512.618	896.392	365.659	1262.052	0.290	-0.579	1.518
1926.000	-104.837	1926.000	3512978514.118	883.783	331.915	1215.698	0.273	-0.579	-2.714
1927.000	-107.766	1927.000	3512978515.616	753.602	387.464	1141.066	0.340	-0.579	-2.714
1928.000	-107.766	1928.000	3512978517.117	1059.518	220.422	1279.940	0.172	-0.156	-2.714
1929.000	-108.107	1929.000	3512978518.616	844.666	336.059	1180.725	0.285	-0.156	-2.714
1930.000	-108.107	1930.000	3512978520.104	799.334	378.387	1177.721	0.321	-0.156	-1.565
1931.000	-109.820	1931.000	3512978521.618	1014.941	243.608	1258.549	0.194	-0.156	-1.565
1932.000	-109.820	1932.000	3512978523.120	771.406	337.046	1108.452	0.304	0.343	-1.565
1933.000	-109.444	1933.000	3512978524.620	833.611	311.195	1144.806	0.272	0.343	-1.565
1934.000	-109.444	1934.000	3512978526.118	929.071	232.558	1161.629	0.200	0.343	1.033
1935.000	-108.597	1935.000	3512978527.620	910.023	324.022	1234.045	0.263	0.343	1.033
1936.000	-108.597	1936.000	3512978529.118	1011.522	211.936	1223.458	0.173	-0.670	1.033
1937.000	-109.400	1937.000	3512978530.617	888.800	213.318	1102.118	0.194	-0.670	1.033
1938.000	-109.400	1938.000	3512978532.119	810.034	269.558	1079.592	0.250	-0.670	-0.835
1939.000	-110.345	1939.000	3512978533.617	1044.600	157.077	1201.677	0.131	-0.670	-0.835
1940.000	-110.345	1940.000	3512978535.116	605.395	615.582	1220.977	0.504	0.525	-0.835
1941.000	-109.929	1941.000	3512978536.618	771.095	289.094	1060.189	0.273	0.525	-0.835
1942.000	-109.929	1942.000	3512978538.117	947.586	244.595	1192.181	0.205	0.525	3.492
1943.000	-106.498	1943.000	3512978539.618	583.905	651.102	1235.007	0.527	0.525	3.492
1944.000	-106.498	1944.000	3512978541.118	1039.139	149.678	1188.816	0.126	-0.631	3.492
1945.000	-107.313	1945.000	3512978542.617	938.040	297.283	1235.323	0.241	-0.631	3.492
1946.000	-107.313	1946.000	3512978544.116	694.372	318.003	1012.375	0.314	-0.631	-3.752
1947.000	-111.144	1947.000	3512978545.620	941.680	250.318	1191.998	0.210	-0.631	-3.752
1948.000	-111.144	1948.000	3512978547.120	931.291	312.379	1243.670	0.251	0.687	-3.752
1949.000	-110.602	1949.000	3512978548.620	770.785	371.875	1142.660	0.325	0.687	-3.752
1950.000	-110.602	1950.000	3512978550.118	951.804	326.686	1278.490	0.256	0.687	0.385
1951.000	-110.402	1951.000	3512978551.620	919.436	261.862	1181.298	0.222	0.687	0.385
1952.000	-110.402	1952.000	3512978553.116	912.332	350.563	1262.895	0.278	-0.654	0.385
1953.000	-111.225	1953.000	3512978554.617	906.160	171.877	1078.038	0.159	-0.654	0.385
1954.000	-111.225	1954.000	3512978556.118	680.297	531.321	1211.618	0.439	-0.654	0.523
1955.000	-110.797	1955.000	3512978557.620	835.342	278.734	1114.076	0.250	-0.654	0.523
1956.000	-110.797	1956.000	3512978559.118	966.678	348.195	1314.873	0.265	2.609	0.523
1957.000	-108.308	1957.000	3512978560.620	786.946	307.248	1094.195	0.281	2.609	0.523
1958.000	-108.308	1958.000	3512978562.120	933.999	125.307	1059.306	0.118	2.609	0.137
1959.000	-108.443	1959.000	3512978563.618	1003.308	328.856	1332.164	0.247	2.609	0.137
1960.000	-108.443	1960.000	3512978565.118	931.247	333.987	1265.234	0.264	-1.519	0.137
1961.000	-110.117	1961.000	3512978566.616	691.619	411.144	1102.764	0.373	-1.519	0.137
1962.000	-110.117	1962.000	3512978568.120	953.757	180.757	1134.515	0.159	-1.519	0.160
1963.000	-110.070	1963.000	3512978569.618	944.522	327.968	1272.490	0.258	-1.519	0.160
1964.000	-110.070	1964.000	3512978571.118	976.890	333.296	1310.186	0.254	-1.996	0.160
1965.000	-112.339	1965.000	3512978572.621	1026.218	134.779	1160.997	0.116	-1.996	0.160
1966.000	-112.339	1966.000	3512978574.120	781.396	259.000	1040.396	0.249	-1.996	-0.031
1967.000	-112.525	1967.000	3512978575.621	1112.443	424.168	1536.612	0.276	-1.996	-0.031
1968.000	-112.525	1968.000	3512978577.120	1003.263	181.547	1184.810	0.153	1.242	-0.031
1969.000	-111.411	1969.000	3512978578.618	973.116	214.304	1187.420	0.180	1.242	-0.031
1970.000	-111.411	1970.000	3512978580.120	802.886	359.542	1162.428	0.309	1.242	-1.148
1971.000	-112.844	1971.000	3512978581.620	1164.657	178.784	1343.442	0.133	1.242	-1.148
1972.000	-112.844	1972.000	3512978583.120	970.851	317.016	1287.868	0.246	1.204	-1.148
1973.000	-111.686	1973.000	3512978584.620	684.516	584.897	1269.412	0.461	1.204	-1.148
1974.000	-111.686	1974.000	3512978586.120	979.154	193.486	1172.640	0.165	1.204	1.057
1975.000	-110.798	1975.000	3512978587.620	894.261	307.742	1202.003	0.256	1.204	1.057
1976.000	-110.798	1976.000	3512978589.119	793.828	433.443	1227.271	0.353	-2.765	1.057
1977.000	-113.850	1977.000	3512978590.617	855.189	172.667	1027.856	0.168	-2.765	1.057
1978.000	-113.850	1978.000	3512978592.120	731.313	428.312	1159.625	0.369	-2.765	0.908
1979.000	-113.122	1979.000	3512978593.620	734.377	436.995	1171.372	0.373	-2.765	0.908
1980.000	-113.122	1980.000	3512978595.120	1123.765	150.368	1274.133	0.118	1.883	0.908
1981.000	-111.414	1981.000	3512978596.621	723.854	357.568	1081.422	0.331	1.883	0.908
1982.000	-111.414	1982.000	3512978598.121	1023.776	207.398	1231.174	0.168	1.883	-2.385
1983.000	-114.022	1983.000	3512978599.620	976.002	272.715	1248.717	0.218	1.883	-2.385
1984.000	-114.022	1984.000	3512978601.118	869.797	270.643	1140.440	0.237	-1.516	-2.385
1985.000	-115.730	1985.000	3512978602.620	884.493	330.534	1215.027	0.272	-1.516	-2.385
1986.000	-115.730	1986.000	3512978604.118	717.105	479.915	1197.020	0.401	-1.516	0.177
1987.000	-115.788	1987.000	3512978605.620	820.113	342.078	1162.191	0.294	-1.516	0.177
1988.000	-115.788	1988.000	3512978607.119	860.872	434.035	1294.907	0.335	1.205	0.177
1989.000	-114.910	1989.000	3512978608.620	924.942	235.419	1160.360	0.203	1.205	0.177
1990.000	-114.910	1990.000	3512978610.122	843.690	268.472	1112.162	0.241	1.205	0.382
1991.000	-114.878	1991.000	3512978611.622	1057.032	205.227	1262.259	0.163	1.205	0.382
1992.000	-114.878	1992.000	3512978613.120	702.586	414.499	1117.085	0.371	0.360	0.382
1993.000	-114.574	1993.000	3512978614.620	732.689	378.880	1111.570	0.341	0.360	0.382
1994.000	-114.574	1994.000	3512978616.120	1028.571	190.822	1219.393	0.156	0.360	1.949
1995.000	-112.753	1995.000	3512978617.620	739.128	526.289	1265.416	0.416	0.360	1.949
1996.000	-112.753	1996.000	3512978619.120	1122.566	219.139	1341.705	0.163	-1.724	1.949
1997.000	-114.770	1997.000	3512978620.620	980.486	446.960	1427.447	0.313	-1.724	1.949
1998.000	-114.770	1998.000	3512978622.120	681.985	579.470	1261.455	0.459	-1.724	-2.362
1999.000	-117.446	1999.000	3512978623.621	1063.381	170.101	1233.482	0.138	-1.724	-2.362
2000.000	-117.446	2000.000	3512978625.121	692.774	603.347	1296.121	0.466	1.367	-2.362
2001.000	-116.277	2001.000	3512978626.621	889.821	371.678	1261.499	0.295	1.367	-2.362
2002.000	-116.277	2002.000	3512978628.120	706.227	422.294	1128.521	0.374	1.367	3.063
2003.000	-113.457	2003.000	3512978629.621	573.071	567.137	1140.208	0.497	1.367	3.063
2004.000	-113.457	2004.000	3512978631.121	1183.527	162.405	1345.933	0.121	0.744	3.063
2005.000	-112.846	2005.000	3512978632.622	799.068	455.051	1254.119	0.363	0.744	3.063
2006.000	-112.846	2006.000	3512978634.121	980.797	320.963	1301.760	0.247	0.744	-3.522
2007.000	-116.673	2007.000	3512978635.621	985.237	249.726	1234.963	0.202	0.744	-3.522
2008.000	-116.673	2008.000	3512978637.120	782.373	354.904	1137.277	0.312	-1.087	-3.522
2009.000	-117.943	2009.000	3512978638.620	794.894	389.832	1184.726	0.329	-1.087	-3.522
2010.000	-117.943	2010.000	3512978640.120	928.583	274.195	1202.778	0.228	-1.087	1.027
2011.000	-117.095	2011.000	3512978641.622	1040.426	346.616	1387.042	0.250	-1.087	1.027
2012.000	-117.095	2012.000	3512978643.122	840.138	329.152	1169.290	0.281	-0.945	1.027
2013.000	-118.288	2013.000	3512978644.622	884.138	284.654	1168.792	0.244	-0.945	1.027
2014.000	-118.288	2014.000	3512978646.122	1013.387	203.550	1216.936	0.167	-0.945	0.295
2015.000	-118.210	2015.000	3512978647.622	814.608	247.160	1061.768	0.233	-0.945	0.295
2016.000	-118.210	2016.000	3512978649.121	856.255	266.006	1122.260	0.237	-0.713	0.295
2017.000	-119.187	2017.000	3512978650.621	1071.107	175.035	1246.141	0.140	-0.713	0.295
2018.000	-119.187	2018.000	3512978652.121	863.181	279.819	1143.000	0.245	-0.713	0.040
2019.000	-119.322	2019.000	3512978653.621	1002.287	83.077	1085.364	0.077	-0.713	0.040
2020.000	-119.322	2020.000	3512978655.121	867.044	363.390	1230.434	0.295	0.976	0.040
2021.000	-118.595	2021.000	3512978656.622	863.270	448.934	1312.204	0.342	0.976	0.040
2022.000	-118.595	2022.000	3512978658.121	691.397	381.446	1072.843	0.356	0.976	2.046
2023.000	-116.800	2023.000	3512978659.623	855.234	329.942	1185.175	0.278	0.976	2.046
2024.000	-116.800	2024.000	3512978661.122	1122.522	168.029	1290.551	0.130	0.126	2.046
2025.000	-116.891	2025.000	3512978662.621	879.432	308.235	1187.667	0.260	0.126	2.046
2026.000	-116.891	2026.000	3512978664.122	823.576	222.888	1046.465	0.213	0.126	-1.386
2027.000	-118.419	2027.000	3512978665.622	841.869	314.056	1155.926	0.272	0.126	-1.386
2028.000	-118.419	2028.000	3512978667.122	946.298	208.680	1154.978	0.181	-0.435	-1.386
2029.000	-119.128	2029.000	3512978668.621	879.787	274.688	1154.475	0.238	-0.435	-1.386
2030.000	-119.128	2030.000	3512978670.121	699.301	362.206	1061.506	0.341	-0.435	-0.851
2031.000	-120.186	2031.000	3512978671.621	1096.770	133.693	1230.463	0.109	-0.435	-0.851
2032.000	-120.186	2032.000	3512978673.121	801.776	420.814	1222.590	0.344	0.966	-0.851
2033.000	-119.421	2033.000	3512978674.621	756.088	293.040	1049.129	0.279	0.966	-0.851
2034.000	-119.421	2034.000	3512978676.121	823.221	327.475	1150.696	0.285	0.966	2.202
2035.000	-117.343	2035.000	3512978677.623	865.135	513.758	1378.893	0.373	0.966	2.202
2036.000	-117.343	2036.000	3512978679.122	1071.995	318.595	1390.589	0.229	0.049	2.202
2037.000	-117.623	2037.000	3512978680.622	857.898	284.358	1142.255	0.249	0.049	2.202
2038.000	-117.623	2038.000	3512978682.122	633.278	548.291	1181.569	0.464	0.049	-1.342
2039.000	-119.164	2039.000	3512978683.623	1113.287	59.397	1172.684	0.051	0.049	-1.342
2040.000	-119.164	2040.000	3512978685.121	699.700	407.790	1107.490	0.368	2.011	-1.342
2041.000	-117.317	2041.000	3512978686.621	811.633	256.238	1067.870	0.240	2.011	-1.342
2042.000	-117.317	2042.000	3512978688.121	802.575	284.456	1087.031	0.262	2.011	2.969
2043.000	-114.403	2043.000	3512978689.622	667.643	678.630	1346.273	0.504	2.011	2.969
2044.000	-114.403	2044.000	3512978691.121	975.069	396.936	1372.006	0.289	0.203	2.969
2045.000	-114.254	2045.000	3512978692.621	652.947	446.368	1099.315	0.406	0.203	2.969
2046.000	-114.254	2046.000	3512978694.122	892.174	298.467	1190.641	0.251	0.203	-2.008
2047.000	-116.413	2047.000	3512978695.622	1102.986	336.848	1439.834	0.234	0.203	-2.008
2048.000	-116.413	2048.000	3512978697.121	943.812	270.248	1214.060	0.223	-1.453	-2.008
2049.000	-118.044	2049.000	3512978698.622	1066.889	256.336	1323.225	0.194	-1.453	-2.008
2050.000	-118.044	2050.000	3512978700.122	816.783	472.120	1288.904	0.366	-1.453	-0.106
2051.000	-118.249	2051.000	3512978701.622	973.205	297.579	1270.784	0.234	-1.453	-0.106
2052.000	-118.249	2052.000	3512978703.122	685.936	443.803	1129.739	0.393	1.614	-0.106
2053.000	-116.796	2053.000	3512978704.623	947.230	297.382	1244.612	0.239	1.614	-0.106
2054.000	-116.796	2054.000	3512978706.122	743.035	192.795	935.830	0.206	1.614	1.484
2055.000	-115.380	2055.000	3512978707.623	849.240	447.848	1297.088	0.345	1.614	1.484
2056.000	-115.380	2056.000	3512978709.121	842.846	397.232	1240.078	0.320	-0.308	1.484
2057.000	-115.731	2057.000	3512978710.621	1000.599	280.510	1281.109	0.219	-0.308	1.484
2058.000	-115.731	2058.000	3512978712.123	842.358	334.678	1177.035	0.284	-0.308	-0.233
2059.000	-116.085	2059.000	3512978713.622	1000.022	368.520	1368.542	0.269	-0.308	-0.233
2060.000	-116.085	2060.000	3512978715.123	824.065	466.398	1290.463	0.361	0.611	-0.233
2061.000	-115.568	2061.000	3512978716.622	955.844	222.099	1177.943	0.189	0.611	-0.233
2062.000	-115.568	2062.000	3512978718.122	810.745	302.315	1113.060	0.272	0.611	0.862
2063.000	-114.661	2063.000	3512978719.623	840.671	397.232	1237.903	0.321	0.611	0.862
2064.000	-114.661	2064.000	3512978721.121	1142.546	144.349	1286.896	0.112	0.777	0.862
2065.000	-113.860	2065.000	3512978722.621	748.984	426.339	1175.323	0.363	0.777	0.862
2066.000	-113.860	2066.000	3512978724.123	883.117	384.998	1268.115	0.304	0.777	-1.952
2067.000	-115.860	2067.000	3512978725.623	1146.942	170.200	1317.142	0.129	0.777	-1.952
2068.000	-115.860	2068.000	3512978727.123	824.686	471.529	1296.215	0.364	-0.553	-1.952
2069.000	-116.466	2069.000	3512978728.623	968.321	216.475	1184.795	0.183	-0.553	-1.952
2070.000	-116.466	2070.000	3512978730.124	864.158	122.248	986.406	0.124	-0.553	2.193
2071.000	-114.221	2071.000	3512978731.623	651.926	492.248	1144.174	0.430	-0.553	2.193
2072.000	-114.221	2072.000	3512978733.122	1175.447	126.096	1301.543	0.097	-0.550	2.193
2073.000	-114.855	2073.000	3512978734.622	1017.072	223.184	1240.256	0.180	-0.550	2.193
2074.000	-114.855	2074.000	3512978736.122	855.189	394.568	1249.758	0.316	-0.550	-3.117
2075.000	-118.153	2075.000	3512978737.623	1201.110	60.779	1261.889	0.048	-0.550	-3.117
2076.000	-118.153	2076.000	3512978739.123	831.124	306.854	1137.978	0.270	1.269	-3.117
2077.000	-116.820	2077.000	3512978740.623	613.165	530.432	1143.597	0.464	1.269	-3.117
2078.000	-116.820	2078.000	3512978742.123	1054.279	305.472	1359.751	0.225	1.269	2.071
2079.000	-114.712	2079.000	3512978743.623	910.956	361.120	1272.076	0.284	1.269	2.071
2080.000	-114.712	2080.000	3512978745.121	1063.736	214.206	1277.942	0.168	-2.236	2.071
2081.000	-117.047	2081.000	3512978746.624	888.800	219.632	1108.432	0.198	-2.236	2.071
2082.000	-117.047	2082.000	3512978748.124	765.945	323.430	1089.375	0.297	-2.236	-1.087
2083.000	-118.286	2083.000	3512978749.624	1043.756	277.550	1321.306	0.210	-2.236	-1.087
2084.000	-118.286	2084.000	3512978751.123	791.120	319.976	1111.096	0.288	0.923	-1.087
2085.000	-117.447	2085.000	3512978752.623	909.002	240.155	1149.157	0.209	0.923	-1.087
2086.000	-117.447	2086.000	3512978754.124	968.587	275.083	1243.670	0.221	0.923	0.729
2087.000	-116.654	2087.000	3512978755.624	848.574	258.803	1107.376	0.234	0.923	0.729
2088.000	-116.654	2088.000	3512978757.122	1163.414	136.653	1300.068	0.105	0.114	0.729
2089.000	-116.562	2089.000	3512978758.623	733.311	516.521	1249.832	0.413	0.114	0.729
2090.000	-116.562	2090.000	3512978760.122	1067.377	300.440	1367.817	0.220	0.114	-1.202
2091.000	-117.793	2091.000	3512978761.623	855.367	386.379	1241.746	0.311	0.114	-1.202
2092.000	-117.793	2092.000	3512978763.123	1039.583	240.254	1279.836	0.188	-1.810	-1.202
2093.000	-119.661	2093.000	3512978764.625	872.416	350.859	1223.276	0.287	-1.810	-1.202
2094.000	-119.661	2094.000	3512978766.125	711.333	247.950	959.283	0.258	-1.810	-1.154
2095.000	-120.908	2095.000	3512978767.624	1069.242	301.328	1370.570	0.220	-1.810	-1.154
2096.000	-120.908	2096.000	3512978769.124	888.933	500.438	1389.371	0.360	-0.265	-1.154
2097.000	-121.198	2097.000	3512978770.623	842.091	235.912	1078.004	0.219	-0.265	-1.154
2098.000	-121.198	2098.000	3512978772.123	775.447	374.638	1150.084	0.326	-0.265	1.312
2099.000	-119.910	2099.000	3512978773.623	666.134	444.691	1110.825	0.400	-0.265	1.312
2100.000	-119.910	2100.000	3512978775.124	827.439	358.851	1186.290	0.302	1.000	1.312
2101.000	-118.922	2101.000	3512978776.623	747.786	347.899	1095.685	0.318	1.000	1.312
2102.000	-118.922	2102.000	3512978778.123	1054.279	356.976	1411.255	0.253	1.000	-0.915
2103.000	-120.001	2103.000	3512978779.623	958.908	278.832	1237.740	0.225	1.000	-0.915
2104.000	-120.001	2104.000	3512978781.123	960.817	408.382	1369.199	0.298	-0.604	-0.915
2105.000	-120.642	2105.000	3512978782.624	1025.419	321.160	1346.579	0.239	-0.604	-0.915
2106.000	-120.642	2106.000	3512978784.123	862.826	386.872	1249.698	0.310	-0.604	0.682
2107.000	-120.015	2107.000	3512978785.623	876.546	366.646	1243.191	0.295	-0.604	0.682
2108.000	-120.015	2108.000	3512978787.125	930.048	255.152	1185.200	0.215	0.665	0.682
2109.000	-119.324	2109.000	3512978788.624	666.089	480.606	1146.695	0.419	0.665	0.682
2110.000	-119.324	2110.000	3512978790.124	998.601	117.611	1116.212	0.105	0.665	-0.745
2111.000	-120.115	2111.000	3512978791.625	736.597	452.585	1189.181	0.381	0.665	-0.745
2112.000	-120.115	2112.000	3512978793.124	1031.857	406.112	1437.969	0.282	-2.934	-0.745
2113.000	-123.202	2113.000	3512978794.623	805.506	218.350	1023.855	0.213	-2.934	-0.745
2114.000	-123.202	2114.000	3512978796.124	507.670	448.934	956.604	0.469	-2.934	-0.918
2115.000	-124.314	2115.000	3512978797.624	1010.856	271.334	1282.189	0.212	-2.934	-0.918
2116.000	-124.314	2116.000	3512978799.125	846.265	271.630	1117.894	0.243	2.394	-0.918
2117.000	-121.953	2117.000	3512978800.625	586.880	518.691	1105.571	0.469	2.394	-0.918
2118.000	-121.953	2118.000	3512978802.125	1067.155	146.224	1213.379	0.121	2.394	0.293
2119.000	-121.776	2119.000	3512978803.625	908.425	396.344	1304.769	0.304	2.394	0.293
2120.000	-121.776	2120.000	3512978805.124	907.404	429.595	1336.999	0.321	-3.260	0.293
2121.000	-125.318	2121.000	3512978806.623	933.378	229.104	1162.482	0.197	-3.260	0.293
2122.000	-125.318	2122.000	3512978808.124	660.983	374.046	1035.029	0.361	-3.260	0.164
2123.000	-125.406	2123.000	3512978809.624	888.178	326.291	1214.469	0.269	-3.260	0.164
2124.000	-125.406	2124.000	3512978811.124	1124.786	251.502	1376.288	0.183	1.536	0.164
2125.000	-124.092	2125.000	3512978812.625	1090.465	211.246	1301.710	0.162	1.536	0.164
2126.000	-124.092	2126.000	3512978814.125	847.464	281.102	1128.565	0.249	1.536	-0.803
2127.000	-125.097	2127.000	3512978815.624	746.098	440.646	1186.744	0.371	1.536	-0.803
2128.000	-125.097	2128.000	3512978817.125	1088.556	331.520	1420.076	0.233	0.812	-0.803
2129.000	-124.402	2129.000	3512978818.625	771.051	387.958	1159.009	0.335	0.812	-0.803
2130.000	-124.402	2130.000	3512978820.124	618.226	354.707	972.933	0.365	0.812	-1.289
2131.000	-125.954	2131.000	3512978821.624	1208.214	114.453	1322.667	0.087	0.812	-1.289
2132.000	-125.954	2132.000	3512978823.125	554.024	637.683	1191.707	0.535	0.279	-1.289
2133.000	-125.856	2133.000	3512978824.625	960.329	210.259	1170.588	0.180	0.279	-1.289
2142.000	-128.176	2142.000	3512978838.125	807.015	420.222	1227.237	0.342	-0.920	3.982
2143.000	-124.403	2143.000	3512978839.625	683.628	486.230	1169.857	0.416	-0.920	3.982
2144.000	-124.403	2144.000	3512978841.125	1139.216	146.224	1285.440	0.114	0.637	3.982
2145.000	-124.038	2145.000	3512978842.624	823.621	459.294	1282.915	0.358	0.637	3.982
2146.000	-124.038	2146.000	3512978844.124	782.151	399.008	1181.159	0.338	0.637	-2.823
2147.000	-127.126	2147.000	3512978845.624	1024.176	393.582	1417.758	0.278	0.637	-2.823
2148.000	-127.126	2148.000	3512978847.124	903.230	410.552	1313.782	0.312	-0.189	-2.823
2149.000	-127.584	2149.000	3512978848.624	888.711	267.190	1155.901	0.231	-0.189	-2.823
2150.000	-127.584	2150.000	3512978850.124	921.656	242.622	1164.278	0.208	-0.189	0.326
2151.000	-127.628	2151.000	3512978851.626	1013.742	292.942	1306.683	0.224	-0.189	0.326
2152.000	-127.628	2152.000	3512978853.124	1028.838	322.739	1351.577	0.239	-0.213	0.326
2153.000	-128.103	2153.000	3512978854.625	884.671	362.600	1247.271	0.291	-0.213	0.326
2154.000	-128.103	2154.000	3512978856.125	888.489	378.683	1267.172	0.299	-0.213	0.137
2155.000	-128.195	2155.000	3512978857.625	903.718	282.976	1186.695	0.238	-0.213	0.137
2156.000	-128.195	2156.000	3512978859.125	730.558	361.416	1091.975	0.331	0.076	0.137
2157.000	-128.450	2157.000	3512978860.625	893.196	365.659	1258.855	0.290	0.076	0.137
2158.000	-128.450	2158.000	3512978862.125	981.507	136.654	1118.161	0.122	0.076	0.865
2159.000	-127.876	2159.000	3512978863.625	836.275	399.403	1235.678	0.323	0.076	0.865
2160.000	-127.876	2160.000	3512978865.124	803.419	415.486	1218.905	0.341	-1.573	0.865
2161.000	-129.766	2161.000	3512978866.624	969.830	117.216	1087.046	0.108	-1.573	0.865
2162.000	-129.766	2162.000	3512978868.125	811.544	324.416	1135.960	0.286	-1.573	0.165
2163.000	-129.846	2163.000	3512978869.625	844.711	437.390	1282.101	0.341	-1.573	0.165
2164.000	-129.846	2164.000	3512978871.125	1017.871	228.118	1245.989	0.183	1.662	0.165
2165.000	-128.476	2165.000	3512978872.625	932.712	238.083	1170.795	0.203	1.662	0.165
2166.000	-128.476	2166.000	3512978874.125	902.742	201.872	1104.614	0.183	1.662	-1.478
2167.000	-130.314	2167.000	3512978875.625	1020.002	242.720	1262.722	0.192	1.662	-1.478
2168.000	-130.314	2168.000	3512978877.125	973.338	366.646	1339.983	0.274	-0.193	-1.478
2169.000	-130.823	2169.000	3512978878.625	635.720	324.712	960.432	0.338	-0.193	-1.478
2170.000	-130.823	2170.000	3512978880.125	941.014	253.574	1194.588	0.212	-0.193	0.761
2171.000	-130.345	2171.000	3512978881.625	1050.594	329.251	1379.845	0.239	-0.193	0.761
2172.000	-130.345	2172.000	3512978883.125	865.046	312.478	1177.524	0.265	-1.176	0.761
2173.000	-131.822	2173.000	3512978884.625	909.624	183.224	1092.848	0.168	-1.176	0.761
2174.000	-131.822	2174.000	3512978886.126	875.081	291.264	1166.345	0.250	-1.176	0.250
2175.000	-131.797	2175.000	3512978887.626	819.758	418.840	1238.598	0.338	-1.176	0.250
2176.000	-131.797	2176.000	3512978889.125	1025.907	207.990	1233.897	0.169	0.767	0.250
2177.000	-131.291	2177.000	3512978890.625	718.259	420.419	1138.678	0.369	0.767	0.250
2178.000	-131.291	2178.000	3512978892.125	906.294	182.336	1088.630	0.167	0.767	-1.586
2179.000	-133.254	2179.000	3512978893.625	1053.657	237.491	1291.148	0.184	0.767	-1.586
2180.000	-133.254	2180.000	3512978895.125	846.886	423.971	1270.858	0.334	-1.886	-1.586
2181.000	-135.556	2181.000	3512978896.625	971.384	137.837	1109.222	0.124	-1.886	-1.586
2182.000	-135.556	2182.000	3512978898.125	912.021	153.328	1065.349	0.144	-1.886	1.399
2183.000	-134.436	2183.000	3512978899.625	1132.468	259.888	1392.356	0.187	-1.886	1.399
2184.000	-134.436	2184.000	3512978901.125	993.362	361.712	1355.075	0.267	0.184	1.399
2185.000	-134.650	2185.000	3512978902.625	1181.219	7.893	1189.112	0.007	0.184	1.399
2186.000	-134.650	2186.000	3512978904.126	717.016	501.918	1218.934	0.412	0.184	0.751
2187.000	-134.181	2187.000	3512978905.625	870.374	360.824	1231.198	0.293	0.184	0.751
2188.000	-134.181	2188.000	3512978907.125	1076.834	407.198	1484.032	0.274	3.788	0.751
2189.000	-130.652	2189.000	3512978908.625	717.416	412.230	1129.646	0.365	3.788	0.751
2190.000	-130.652	2190.000	3512978910.125	1064.580	206.312	1270.892	0.162	3.788	-0.175
2191.000	-131.091	2191.000	3512978911.625	821.134	369.704	1190.839	0.310	3.788	-0.175
2192.000	-131.091	2192.000	3512978913.125	997.136	275.971	1273.107	0.217	-1.894	-0.175
2193.000	-133.207	2193.000	3512978914.625	770.563	387.168	1157.731	0.334	-1.894	-0.175
2194.000	-133.207	2194.000	3512978916.125	943.501	44.795	988.296	0.045	-1.894	-0.876
2195.000	-134.356	2195.000	3512978917.625	797.691	286.923	1084.614	0.265	-1.894	-0.876
2196.000	-134.356	2196.000	3512978919.125	823.665	220.224	1043.889	0.211	-2.703	-0.876
2197.000	-137.539	2197.000	3512978920.626	1084.072	57.325	1141.397	0.050	-2.703	-0.876
2198.000	-137.539	2198.000	3512978922.127	477.078	530.038	1007.116	0.526	-2.703	-0.501
2199.000	-138.356	2199.000	3512978923.626	1022.267	278.734	1301.000	0.214	-2.703	-0.501
2204.000	-131.822	2204.000	3512978931.126	1109.735	256.336	1366.071	0.188	-0.700	2.414
2205.000	-132.742	2205.000	3512978932.625	736.774	480.310	1217.084	0.395	-0.700	2.414
2206.000	-132.742	2206.000	3512978934.126	880.897	208.680	1089.577	0.192	-0.700	-1.999
2207.000	-135.013	2207.000	3512978935.626	879.165	411.736	1290.902	0.319	-0.700	-1.999
2208.000	-135.013	2208.000	3512978937.125	915.396	277.254	1192.649	0.232	-1.899	-1.999
2209.000	-137.268	2209.000	3512978938.626	1043.845	98.272	1142.117	0.086	-1.899	-1.999
2210.000	-137.268	2210.000	3512978940.126	772.206	280.016	1052.222	0.266	-1.899	-0.809
2211.000	-138.328	2211.000	3512978941.625	945.233	200.392	1145.625	0.175	-1.899	-0.809
2212.000	-138.328	2212.000	3512978943.126	906.604	503.003	1409.608	0.357	1.684	-0.809
2213.000	-136.942	2213.000	3512978944.626	661.250	499.451	1160.701	0.430	1.684	-0.809
2214.000	-136.942	2214.000	3512978946.126	1031.591	11.149	1042.740	0.011	1.684	1.701
2215.000	-135.617	2215.000	3512978947.626	617.738	586.673	1204.410	0.487	1.684	1.701
2216.000	-135.617	2216.000	3512978949.126	890.798	363.587	1254.385	0.290	-3.923	1.701
2217.000	-140.032	2217.000	3512978950.626	1092.108	78.933	1171.041	0.067	-3.923	1.701
2218.000	-140.032	2218.000	3512978952.125	682.518	508.529	1191.046	0.427	-3.923	-1.844
2219.000	-142.130	2219.000	3512978953.626	792.052	376.808	1168.861	0.322	-3.923	-1.844
2220.000	-142.130	2220.000	3512978955.126	809.235	413.414	1222.649	0.338	3.362	-1.844
2221.000	-139.062	2221.000	3512978956.626	818.337	286.528	1104.865	0.259	3.362	-1.844
2222.000	-139.062	2222.000	3512978958.126	873.970	312.675	1186.645	0.263	3.362	0.147
2223.000	-139.355	2223.000	3512978959.626	985.148	252.587	1237.735	0.204	3.362	0.147
2224.000	-139.355	2224.000	3512978961.126	800.178	338.230	1138.407	0.297	0.039	0.147
2225.000	-139.641	2225.000	3512978962.625	878.144	319.187	1197.331	0.267	0.039	0.147
2226.000	-139.641	2226.000	3512978964.126	1056.588	161.123	1217.711	0.132	0.039	0.870
2227.000	-139.039	2227.000	3512978965.626	936.708	311.294	1248.001	0.249	0.039	0.870
2228.000	-139.039	2228.000	3512978967.126	912.465	381.544	1294.010	0.295	-1.255	0.870
2229.000	-140.676	2229.000	3512978968.626	1151.116	163.195	1314.310	0.124	-1.255	0.870
2230.000	-140.676	2230.000	3512978970.126	901.232	397.627	1298.859	0.306	-1.255	0.425
2231.000	-140.514	2231.000	3512978971.626	781.574	461.760	1243.334	0.371	-1.255	0.425
2232.000	-140.514	2232.000	3512978973.125	1056.233	269.656	1325.889	0.203	1.701	0.425
2233.000	-139.104	2233.000	3512978974.627	830.458	335.467	1165.925	0.288	1.701	0.425
2234.000	-139.104	2234.000	3512978976.126	867.444	201.182	1068.625	0.188	1.701	-1.571
2235.000	-141.017	2235.000	3512978977.626	1065.068	285.443	1350.511	0.211	1.701	-1.571
2236.000	-141.017	2236.000	3512978979.126	659.607	454.558	1114.165	0.408	-0.930	-1.571
2237.000	-142.290	2237.000	3512978980.626	1011.167	242.720	1253.887	0.194	-0.930	-1.571
2238.000	-142.290	2238.000	3512978982.126	851.859	296.790	1148.649	0.258	-0.930	1.838
2239.000	-140.751	2239.000	3512978983.626	939.549	386.675	1326.224	0.292	-0.930	1.838
2240.000	-140.751	2240.000	3512978985.126	781.707	352.240	1133.947	0.311	0.606	1.838
2241.000	-140.380	2241.000	3512978986.626	1003.086	275.379	1278.465	0.215	0.606	1.838
2242.000	-140.380	2242.000	3512978988.126	845.910	320.272	1166.182	0.275	0.606	0.178
2243.000	-140.501	2243.000	3512978989.626	1012.676	273.307	1285.983	0.213	0.606	0.178
2244.000	-140.501	2244.000	3512978991.127	762.704	227.723	990.427	0.230	0.554	0.178
2245.000	-140.234	2245.000	3512978992.627	764.036	412.131	1176.167	0.350	0.554	0.178
2246.000	-140.234	2246.000	3512978994.126	894.350	294.027	1188.377	0.247	0.554	0.163
2247.000	-140.291	2247.000	3512978995.626	961.039	265.414	1226.452	0.216	0.554	0.163
2248.000	-140.291	2248.000	3512978997.125	894.439	394.470	1288.908	0.306	-0.963	0.163
2249.000	-141.578	2249.000	3512978998.626	909.757	160.333	1070.090	0.150	-0.963	0.163
2250.000	-141.578	2250.000	3512979000.125	831.968	470.936	1302.904	0.361	-0.963	0.838
2251.000	-140.949	2251.000	3512979001.626	902.786	437.291	1340.077	0.326	-0.963	0.838
2252.000	-140.949	2252.000	3512979003.125	848.085	347.998	1196.083	0.291	1.979	0.838
2253.000	-139.138	2253.000	3512979004.625	706.627	472.318	1178.945	0.401	1.979	0.838
2254.000	-139.138	2254.000	3512979006.126	1001.487	210.752	1212.240	0.174	1.979	-0.331
2255.000	-139.703	2255.000	3512979007.626	1134.199	113.171	1247.370	0.091	1.979	-0.331
2256.000	-139.703	2256.000	3512979009.126	1046.021	281.200	1327.221	0.212	-2.120	-0.331
2257.000	-142.128	2257.000	3512979010.626	996.870	165.069	1161.939	0.142	-2.120	-0.331
2258.000	-142.128	2258.000	3512979012.126	823.310	298.072	1121.382	0.266	-2.120	1.133
2259.000	-141.094	2259.000	3512979013.626	700.277	603.545	1303.822	0.463	-2.120	1.133
2260.000	-141.094	2260.000	3512979015.126	1126.607	59.299	1185.905	0.050	1.157	1.133
2261.000	-140.092	2261.000	3512979016.626	884.804	347.307	1232.111	0.282	1.157	1.133
2262.000	-140.092	2262.000	3512979018.126	794.317	201.379	995.696	0.202	1.157	-3.861
2263.000	-144.301	2263.000	3512979019.626	1163.947	93.536	1257.483	0.074	1.157	-3.861
2264.000	-144.301	2264.000	3512979021.126	850.572	577.990	1428.562	0.405	-0.745	-3.861
2265.000	-145.233	2265.000	3512979022.626	1056.233	52.984	1109.217	0.048	-0.745	-3.861
2266.000	-145.233	2266.000	3512979024.126	639.938	532.505	1172.442	0.454	-0.745	3.087
2267.000	-142.380	2267.000	3512979025.626	926.052	362.502	1288.553	0.281	-0.745	3.087
2268.000	-142.380	2268.000	3512979027.127	1026.707	318.299	1345.005	0.237	3.800	3.087
2269.000	-138.757	2269.000	3512979028.626	484.538	446.763	931.301	0.480	3.800	3.087
2270.000	-138.757	2270.000	3512979030.126	1096.326	125.011	1221.336	0.102	3.800	-0.418
2271.000	-139.420	2271.000	3512979031.626	922.988	450.118	1373.106	0.328	3.800	-0.418
2272.000	-139.420	2272.000	3512979033.127	827.839	344.840	1172.679	0.294	-3.528	-0.418
2273.000	-143.203	2273.000	3512979034.626	1042.735	151.848	1194.583	0.127	-3.528	-0.418
2274.000	-143.203	2274.000	3512979036.127	773.360	360.331	1133.691	0.318	-3.528	-0.316
2275.000	-143.734	2275.000	3512979037.626	1085.004	164.971	1249.975	0.132	-3.528	-0.316
2276.000	-143.734	2276.000	3512979039.126	835.831	298.763	1134.594	0.263	1.783	-0.316
2277.000	-141.982	2277.000	3512979040.626	882.895	260.875	1143.770	0.228	1.783	-0.316
2278.000	-141.982	2278.000	3512979042.126	877.966	290.672	1168.639	0.249	1.783	1.228
2279.000	-140.880	2279.000	3512979043.627	1082.162	224.960	1307.122	0.172	1.783	1.228
2280.000	-140.880	2280.000	3512979045.127	974.625	197.334	1171.959	0.168	0.193	1.228
2281.000	-140.910	2281.000	3512979046.626	843.157	278.043	1121.200	0.248	0.193	1.228
2282.000	-140.910	2282.000	3512979048.126	929.692	269.854	1199.546	0.225	0.193	-0.035
2283.000	-141.184	2283.000	3512979049.626	892.707	382.334	1275.041	0.300	0.193	-0.035
2284.000	-141.184	2284.000	3512979051.126	761.771	442.619	1204.391	0.368	-0.215	-0.035
2285.000	-141.603	2285.000	3512979052.626	766.877	338.920	1105.798	0.306	-0.215	-0.035
2286.000	-141.603	2286.000	3512979054.126	945.943	167.339	1113.282	0.150	-0.215	0.632
2287.000	-141.079	2287.000	3512979055.627	793.251	469.062	1262.313	0.372	-0.215	0.632
2288.000	-141.079	2288.000	3512979057.126	1153.424	148.395	1301.819	0.114	-1.460	0.632
2289.000	-142.720	2289.000	3512979058.626	1062.582	179.376	1241.958	0.144	-1.460	0.632
2290.000	-142.720	2290.000	3512979060.126	891.198	356.582	1247.779	0.286	-1.460	-2.409
2291.000	-145.309	2291.000	3512979061.627	1014.719	316.227	1330.946	0.238	-1.460	-2.409
2292.000	-145.309	2292.000	3512979063.127	735.442	479.126	1214.568	0.394	1.322	-2.409
2293.000	-144.178	2293.000	3512979064.626	796.048	364.475	1160.523	0.314	1.322	-2.409
2294.000	-144.178	2294.000	3512979066.126	802.353	315.142	1117.495	0.282	1.322	1.467
2295.000	-142.900	2295.000	3512979067.626	1118.925	192.006	1310.931	0.146	1.322	1.467
2296.000	-142.900	2296.000	3512979069.126	1039.316	344.051	1383.367	0.249	-0.300	1.467
2297.000	-143.203	2297.000	3512979070.626	945.010	264.723	1209.733	0.219	-0.300	1.467
2298.000	-143.203	2298.000	3512979072.126	765.723	319.286	1085.009	0.294	-0.300	0.956
2299.000	-142.286	2299.000	3512979073.626	708.270	424.859	1133.129	0.375	-0.300	0.956
2300.000	-142.286	2300.000	3512979075.126	1131.668	88.405	1220.074	0.072	0.705	0.956
2301.000	-141.693	2301.000	3512979076.626	984.704	261.368	1246.072	0.210	0.705	0.956
2302.000	-141.693	2302.000	3512979078.127	1136.641	141.587	1278.228	0.111	0.705	-2.828
2303.000	-144.699	2303.000	3512979079.628	1049.217	236.011	1285.228	0.184	0.705	-2.828
2304.000	-144.699	2304.000	3512979081.127	697.835	585.785	1283.620	0.456	-0.926	-2.828
2305.000	-145.775	2305.000	3512979082.626	940.127	228.019	1168.146	0.195	-0.926	-2.828
2306.000	-145.775	2306.000	3512979084.126	765.457	339.710	1105.166	0.307	-0.926	2.550
2307.000	-143.306	2307.000	3512979085.627	899.944	232.360	1132.305	0.205	-0.926	2.550
2308.000	-143.306	2308.000	3512979087.127	1035.942	151.256	1187.198	0.127	1.049	2.550
2309.000	-142.284	2309.000	3512979088.626	713.376	354.904	1068.280	0.332	1.049	2.550
2310.000	-142.284	2310.000	3512979090.126	986.702	268.670	1255.372	0.214	1.049	-0.727
2311.000	-143.140	2311.000	3512979091.627	717.460	539.510	1256.970	0.429	1.049	-0.727
2312.000	-143.140	2312.000	3512979093.126	969.253	247.752	1217.005	0.204	-1.105	-0.727
2313.000	-144.395	2313.000	3512979094.626	933.067	215.883	1148.950	0.188	-1.105	-0.727
2314.000	-144.395	2314.000	3512979096.127	800.399	296.592	1096.992	0.270	-1.105	-2.110
2315.000	-146.653	2315.000	3512979097.628	1247.908	193.782	1441.689	0.134	-1.105	-2.110
2316.000	-146.653	2316.000	3512979099.127	631.768	581.542	1213.310	0.479	0.771	-2.110
2317.000	-145.940	2317.000	3512979100.627	985.859	312.083	1297.942	0.240	0.771	-2.110
2318.000	-145.940	2318.000	3512979102.127	801.954	431.371	1233.325	0.350	0.771	3.225
2319.000	-142.785	2319.000	3512979103.627	1003.796	353.326	1357.122	0.260	0.771	3.225
2320.000	-142.785	2320.000	3512979105.126	1092.774	284.160	1376.934	0.206	1.022	3.225
2321.000	-141.785	2321.000	3512979106.627	655.700	418.840	1074.540	0.390	1.022	3.225
2322.000	-141.785	2322.000	3512979108.127	998.157	266.598	1264.755	0.211	1.022	-0.505
2323.000	-142.383	2323.000	3512979109.627	1090.598	226.144	1316.743	0.172	1.022	-0.505
2324.000	-142.383	2324.000	3512979111.127	897.680	390.227	1287.907	0.303	-1.674	-0.505
2325.000	-144.179	2325.000	3512979112.627	704.318	376.019	1080.337	0.348	-1.674	-0.505
2326.000	-144.179	2326.000	3512979114.128	730.913	429.595	1160.509	0.370	-1.674	1.227
2327.000	-142.981	2327.000	3512979115.628	839.427	382.531	1221.958	0.313	-1.674	1.227
2328.000	-142.981	2328.000	3512979117.127	1033.145	132.608	1165.753	0.114	0.207	1.227
2329.000	-142.831	2329.000	3512979118.626	819.403	266.894	1086.296	0.246	0.207	1.227
2330.000	-142.831	2330.000	3512979120.127	531.868	400.982	932.850	0.430	0.207	-1.863
2331.000	-144.849	2331.000	3512979121.616	955.711	236.899	1192.610	0.199	0.207	-1.863
2332.000	-144.849	2332.000	3512979123.127	653.435	507.443	1160.879	0.437	1.722	-1.863
2333.000	-143.183	2333.000	3512979124.627	706.538	465.510	1172.048	0.397	1.722	-1.863
2334.000	-143.183	2334.000	3512979126.127	1050.327	258.704	1309.032	0.198	1.722	2.230
2335.000	-140.977	2335.000	3512979127.627	598.868	544.739	1143.607	0.476	1.722	2.230
2336.000	-140.977	2336.000	3512979129.126	1194.628	179.771	1374.398	0.131	-1.866	2.230
2337.000	-142.880	2337.000	3512979130.627	822.910	273.110	1096.020	0.249	-1.866	2.230
2338.000	-142.880	2338.000	3512979132.128	703.030	397.528	1100.559	0.361	-1.866	-3.231
2339.000	-146.343	2339.000	3512979133.627	1043.978	203.747	1247.725	0.163	-1.866	-3.231
2340.000	-146.343	2340.000	3512979135.127	673.016	637.881	1310.896	0.487	1.047	-3.231
2341.000	-145.325	2341.000	3512979136.627	941.814	375.624	1317.438	0.285	1.047	-3.231
2342.000	-145.325	2342.000	3512979138.128	1021.956	319.976	1341.932	0.238	1.047	3.023
2343.000	-142.196	2343.000	3512979139.628	785.570	547.699	1333.269	0.411	1.047	3.023
2344.000	-142.196	2344.000	3512979141.126	1072.439	129.155	1201.593	0.107	-0.436	3.023
2345.000	-142.641	2345.000	3512979142.627	854.923	347.998	1202.920	0.289	-0.436	3.023
2346.000	-142.641	2346.000	3512979144.127	949.495	262.158	1211.652	0.216	-0.436	-2.836
2347.000	-145.644	2347.000	3512979145.627	1155.023	139.317	1294.340	0.108	-0.436	-2.836
2348.000	-145.644	2348.000	3512979147.127	746.409	465.312	1211.722	0.384	-0.682	-2.836
2349.000	-146.549	2349.000	3512979148.628	962.815	246.174	1208.989	0.204	-0.682	-2.836
2350.000	-146.549	2350.000	3512979150.127	959.441	228.019	1187.459	0.192	-0.682	2.584
2351.000	-143.979	2351.000	3512979151.627	788.678	379.275	1167.953	0.325	-0.682	2.584
2352.000	-143.979	2352.000	3512979153.127	1026.396	286.627	1313.023	0.218	-0.108	2.584
2353.000	-144.142	2353.000	3512979154.627	724.698	36.704	761.402	0.048	-0.108	2.584
2354.000	-144.142	2354.000	3512979156.127	819.492	422.688	1242.180	0.340	-0.108	-0.995
2355.000	-145.174	2355.000	3512979157.627	971.473	339.710	1311.183	0.259	-0.108	-0.995
2356.000	-145.174	2356.000	3512979159.127	741.747	395.654	1137.401	0.348	2.731	-0.995
2357.000	-142.440	2357.000	3512979160.627	676.301	423.774	1100.075	0.385	2.731	-0.995
2358.000	-142.440	2358.000	3512979162.128	1171.229	180.363	1351.592	0.133	2.731	0.830
2359.000	-141.657	2359.000	3512979163.627	733.133	545.923	1279.057	0.427	2.731	0.830
2360.000	-141.657	2360.000	3512979165.127	975.868	70.645	1046.514	0.068	-2.354	0.830
2361.000	-144.134	2361.000	3512979166.628	635.764	440.646	1076.410	0.409	-2.354	0.830
2362.000	-144.134	2362.000	3512979168.128	926.762	255.054	1181.816	0.216	-2.354	-3.360
2363.000	-147.703	2363.000	3512979169.628	1182.018	125.603	1307.621	0.096	-2.354	-3.360
2364.000	-147.703	2364.000	3512979171.128	679.365	492.446	1171.811	0.420	-1.810	-3.360
2365.000	-149.711	2365.000	3512979172.628	981.907	146.027	1127.934	0.129	-1.810	-3.360
2366.000	-149.711	2366.000	3512979174.128	716.484	399.502	1115.985	0.358	-1.810	3.031
2367.000	-146.768	2367.000	3512979175.628	943.679	320.470	1264.148	0.254	-1.810	3.031
2368.000	-146.768	2368.000	3512979177.127	1167.455	74.691	1242.146	0.060	2.137	3.031
2369.000	-144.648	2369.000	3512979178.627	764.835	323.134	1087.969	0.297	2.137	3.031
2370.000	-144.648	2370.000	3512979180.127	755.200	416.867	1172.067	0.356	2.137	-1.808
2371.000	-146.514	2371.000	3512979181.627	946.209	134.779	1080.988	0.125	2.137	-1.808
2372.000	-146.514	2372.000	3512979183.127	814.386	362.403	1176.789	0.308	0.548	-1.808
2373.000	-146.013	2373.000	3512979184.628	746.187	481.000	1227.188	0.392	0.548	-1.808
2374.000	-146.013	2374.000	3512979186.128	993.229	253.179	1246.408	0.203	0.548	1.714
2375.000	-144.338	2375.000	3512979187.628	893.107	635.217	1528.323	0.416	0.548	1.714
2376.000	-144.338	2376.000	3512979189.128	1030.614	143.165	1173.779	0.122	-1.766	1.714
2377.000	-146.218	2377.000	3512979190.627	855.145	155.400	1010.545	0.154	-1.766	1.714
2378.000	-146.218	2378.000	3512979192.127	781.796	410.158	1191.954	0.344	-1.766	-2.746
2379.000	-149.180	2379.000	3512979193.628	1061.072	318.398	1379.470	0.231	-1.766	-2.746
2380.000	-149.180	2380.000	3512979195.128	738.062	527.670	1265.732	0.417	1.780	-2.746
2381.000	-147.466	2381.000	3512979196.627	617.560	547.305	1164.865	0.470	1.780	-2.746
2382.000	-147.466	2382.000	3512979198.128	1081.763	178.291	1260.053	0.141	1.780	1.740
2383.000	-145.723	2383.000	3512979199.627	948.607	290.574	1239.181	0.234	1.780	1.740
2384.000	-145.723	2384.000	3512979201.128	843.157	485.046	1328.203	0.365	-3.070	1.740
2385.000	-148.964	2385.000	3512979202.628	1071.772	84.656	1156.429	0.073	-3.070	1.740
2386.000	-148.964	2386.000	3512979204.128	707.382	535.760	1243.142	0.431	-3.070	1.222
2387.000	-147.796	2387.000	3512979205.628	633.100	512.771	1145.871	0.447	-3.070	1.222
2388.000	-147.796	2388.000	3512979207.128	1278.099	170.792	1448.892	0.118	3.345	1.222
2389.000	-144.507	2389.000	3512979208.628	649.750	386.971	1036.721	0.373	3.345	1.222
2390.000	-144.507	2390.000	3512979210.128	1158.308	159.347	1317.655	0.121	3.345	-3.082
2391.000	-147.760	2391.000	3512979211.628	1037.762	169.707	1207.469	0.141	3.345	-3.082
2392.000	-147.760	2392.000	3512979213.128	713.953	371.382	1085.334	0.342	-2.359	-3.082
2393.000	-150.240	2393.000	3512979214.628	980.975	285.443	1266.418	0.225	-2.359	-3.082
2394.000	-150.240	2394.000	3512979216.127	983.328	217.856	1201.184	0.181	-2.359	1.885
2395.000	-148.328	2395.000	3512979217.627	1006.904	456.334	1463.238	0.312	-2.359	1.885
2396.000	-148.328	2396.000	3512979219.129	1007.837	159.149	1166.986	0.136	-0.412	1.885
2397.000	-148.918	2397.000	3512979220.628	920.857	141.291	1062.148	0.133	-0.412	1.885
2398.000	-148.918	2398.000	3512979222.128	878.144	344.742	1222.886	0.282	-0.412	-1.641
2399.000	-150.766	2399.000	3512979223.628	670.130	496.195	1166.325	0.425	-0.412	-1.641
2400.000	-150.766	2400.000	3512979225.128	866.245	235.222	1101.466	0.214	1.392	-1.641
2401.000	-149.541	2401.000	3512979226.628	643.268	568.617	1211.885	0.469	1.392	-1.641
2402.000	-149.541	2402.000	3512979228.127	964.324	148.888	1113.213	0.134	1.392	-1.981
2403.000	-151.810	2403.000	3512979229.628	1036.919	267.190	1304.108	0.205	1.392	-1.981
2404.000	-151.810	2404.000	3512979231.128	649.040	515.731	1164.771	0.443	-3.136	-1.981
2405.000	-155.193	2405.000	3512979232.628	1149.428	58.707	1208.135	0.049	-3.136	-1.981
2406.000	-155.193	2406.000	3512979234.128	725.364	423.083	1148.447	0.368	-3.136	2.224
2407.000	-153.217	2407.000	3512979235.628	970.141	350.958	1321.099	0.266	-3.136	2.224
2408.000	-153.217	2408.000	3512979237.128	1040.915	198.912	1239.827	0.160	2.990	2.224
2409.000	-150.340	2409.000	3512979238.628	615.429	387.859	1003.288	0.387	2.990	2.224
2410.000	-150.340	2410.000	3512979240.128	1153.335	91.760	1245.095	0.074	2.990	-0.984
2411.000	-151.539	2411.000	3512979241.628	1007.304	265.512	1272.816	0.209	2.990	-0.984
2412.000	-151.539	2412.000	3512979243.128	863.714	381.742	1245.456	0.307	-2.926	-0.984
2413.000	-154.813	2413.000	3512979244.628	954.778	215.982	1170.760	0.184	-2.926	-0.984
2414.000	-154.813	2414.000	3512979246.128	745.299	430.582	1175.881	0.366	-2.926	0.915
2415.000	-154.182	2415.000	3512979247.628	910.201	317.707	1227.908	0.259	-2.926	0.915
2416.000	-154.182	2416.000	3512979249.128	851.859	465.115	1316.974	0.353	1.699	0.915
2417.000	-152.668	2417.000	3512979250.627	754.179	386.379	1140.558	0.339	1.699	0.915
2418.000	-152.668	2418.000	3512979252.128	947.763	170.595	1118.358	0.153	1.699	0.883
2419.000	-151.876	2419.000	3512979253.629	709.379	673.697	1383.076	0.487	1.699	0.883
2420.000	-151.876	2420.000	3512979255.129	867.044	359.936	1226.980	0.293	-1.741	0.883
2421.000	-153.950	2421.000	3512979256.629	1010.945	168.326	1179.270	0.143	-1.741	0.883
2422.000	-153.950	2422.000	3512979258.129	656.987	556.777	1213.764	0.459	-1.741	-1.812
2423.000	-156.087	2423.000	3512979259.629	969.386	266.104	1235.490	0.215	-1.741	-1.812
2424.000	-156.087	2424.000	3512979261.128	854.568	309.419	1163.987	0.266	2.954	-1.812
2425.000	-153.310	2425.000	3512979262.628	667.910	476.560	1144.470	0.416	2.954	-1.812
2426.000	-153.310	2426.000	3512979264.128	1065.645	185.099	1250.744	0.148	2.954	0.472
2427.000	-153.020	2427.000	3512979265.628	7.814	65.416	73.230	0.893	2.954	0.472
2428.000	-153.020	2428.000	3512979267.128	45.421	53.675	99.096	0.542	-2.510	0.472
2429.000	-155.808	2429.000	3512979268.628	986.036	143.757	1129.794	0.127	-2.510	0.472
2434.000	-154.290	2434.000	3512979276.128	869.397	350.958	1220.355	0.288	1.880	0.098
2435.000	-154.499	2435.000	3512979277.628	949.184	58.805	1007.990	0.058	1.880	0.098
2436.000	-154.499	2436.000	3512979279.129	593.451	607.985	1201.436	0.506	0.081	0.098
2437.000	-154.738	2437.000	3512979280.629	877.744	245.088	1122.833	0.218	0.081	0.098
2446.000	-157.047	2446.000	3512979294.133	806.305	298.664	1104.969	0.270	-2.421	2.891
2447.000	-154.204	2447.000	3512979295.633	666.445	657.713	1324.157	0.497	-2.421	2.891
2448.000	-154.204	2448.000	3512979297.128	1049.173	240.944	1290.117	0.187	1.218	2.891
2449.000	-153.208	2449.000	3512979298.629	753.247	400.390	1153.636	0.347	1.218	2.891
2450.000	-153.208	2450.000	3512979300.128	798.135	368.323	1166.458	0.316	1.218	-2.898
2451.000	-156.442	2451.000	3512979301.628	1045.221	263.736	1308.958	0.201	1.218	-2.898
2452.000	-156.442	2452.000	3512979303.128	480.630	587.067	1067.698	0.550	-0.293	-2.898
2453.000	-157.009	2453.000	3512979304.628	825.841	191.907	1017.748	0.189	-0.293	-2.898
2454.000	-157.009	2454.000	3512979306.130	724.609	369.310	1093.918	0.338	-0.293	3.257
